accelerationX,accelerationY,accelerationZ,gyroscopeX,gyroscopeY,gyroscopeZ,Temperature
1.188720703125,1.235595703125,0.141845703125,-3.5572519083969465,-2.053435114503817,-4.343511450381679,46.97705882352941
1.184326171875,1.013427734375,0.149658203125,-8.877862595419847,-5.534351145038168,15.473282442748092,44.57705882352941
1.498046875,1.02978515625,0.150390625,-1.984732824427481,-2.068702290076336,-8.702290076335878,40.059411764705885
1.324951171875,1.076171875,0.149169921875,-2.0763358778625953,0.8244274809160306,6.320610687022901,36.43588235294118
1.49072265625,1.127685546875,0.1435546875,-3.8931297709923665,1.3053435114503817,17.633587786259543,36.24764705882353
1.51806640625,1.289306640625,0.147216796875,-0.5038167938931297,-0.6564885496183206,5.1679389312977095,36.906470588235294
1.458984375,1.18115234375,0.1533203125,0.061068702290076333,0.9083969465648855,-1.618320610687023,37.00058823529412
1.578125,1.166259765625,0.148681640625,-0.2748091603053435,0.9083969465648855,12.312977099236642,36.15352941176471
1.65185546875,1.226806640625,0.148193359375,-2.6946564885496183,1.618320610687023,3.9618320610687023,36.85941176470588
1.68017578125,1.084716796875,0.146240234375,-0.7786259541984732,0.5419847328244275,6.083969465648855,37.04764705882353
1.652099609375,1.139892578125,0.14794921875,1.16793893129771,0.6564885496183206,8.458015267175572,36.341764705882355
1.7646484375,1.242431640625,0.14990234375,0.816793893129771,-1.7251908396946565,5.793893129770993,37.04764705882353
1.63427734375,1.105712890625,0.1533203125,-0.3893129770992366,1.6030534351145038,6.198473282442748,37.04764705882353
1.82177734375,1.22119140625,0.152587890625,0.4961832061068702,1.2671755725190839,0.22900763358778625,37.18882352941176
1.693359375,1.191162109375,0.145751953125,3.427480916030534,0.2366412213740458,4.343511450381679,36.341764705882355
1.684814453125,1.229736328125,0.142333984375,-1.213740458015267,1.8015267175572518,2.404580152671756,36.906470588235294
1.736328125,1.21044921875,0.142578125,-1.2442748091603053,0.8854961832061069,8.213740458015268,37.18882352941176
1.673095703125,1.22509765625,0.1416015625,-1.748091603053435,1.5877862595419847,4.351145038167939,37.09470588235294
1.699951171875,1.162353515625,0.140625,1.3893129770992367,-1.3358778625954197,3.7480916030534353,36.24764705882353
1.6044921875,1.210205078125,0.153076171875,-1.0381679389312977,1.0763358778625953,3.9770992366412212,36.906470588235294
1.668701171875,1.215087890625,0.144775390625,-1.7938931297709924,-0.2366412213740458,-10.381679389312977,36.906470588235294
1.567138671875,1.07861328125,0.141845703125,-1.0534351145038168,1.5114503816793894,12.145038167938932,36.29470588235294
1.5400390625,1.213623046875,0.14794921875,0.5190839694656488,0.5648854961832062,4.519083969465649,37.00058823529412
1.497802734375,1.236572265625,0.14208984375,-1.4732824427480915,1.633587786259542,6.076335877862595,36.85941176470588
1.330078125,1.15234375,0.15234375,-2.0916030534351147,1.7251908396946565,17.65648854961832,36.15352941176471
1.36962890625,1.271728515625,0.14794921875,-0.6259541984732825,-0.06870229007633588,-8.320610687022901,37.09470588235294
1.216796875,1.2783203125,0.14501953125,-1.5954198473282444,0.5648854961832062,8.198473282442748,37.80058823529412
1.297607421875,1.09765625,0.14501953125,-2.053435114503817,-0.5725190839694656,1.0610687022900764,36.341764705882355
1.083740234375,1.199462890625,0.150146484375,-3.366412213740458,1.717557251908397,4.809160305343512,37.09470588235294
1.1162109375,1.223388671875,0.144775390625,-0.6946564885496184,0.8473282442748091,2.366412213740458,36.341764705882355
0.86279296875,1.148681640625,0.149169921875,-4.687022900763359,0.366412213740458,18.35114503816794,37.00058823529412
0.9404296875,1.239990234375,0.150146484375,-3.969465648854962,0.2824427480916031,-3.366412213740458,36.48294117647059
0.724365234375,1.10693359375,0.14111328125,-4.9465648854961835,1.1068702290076335,2.1374045801526718,37.09470588235294
0.68603515625,1.16455078125,0.154052734375,-3.984732824427481,1.6717557251908397,25.82442748091603,36.341764705882355
0.60693359375,1.236572265625,0.141357421875,-2.0229007633587788,1.5572519083969465,-9.351145038167939,36.15352941176471
0.446533203125,1.11669921875,0.143310546875,-2.854961832061069,0.6335877862595419,14.366412213740459,36.24764705882353
0.50439453125,1.26806640625,0.1494140625,-0.5572519083969466,0.5267175572519084,-18.900763358778626,35.54176470588236
0.124267578125,1.102783203125,0.14697265625,-2.618320610687023,1.6946564885496183,32.083969465648856,34.788823529411765
0.30517578125,1.2646484375,0.145263671875,3.0839694656488548,0.5419847328244275,-11.98473282442748,34.74176470588235
-0.016357421875,1.06494140625,0.146728515625,2.4427480916030535,0.9541984732824428,15.442748091603054,34.788823529411765
-0.052001953125,1.03466796875,0.14599609375,6.969465648854962,0.15267175572519084,19.251908396946565,33.894705882352945
-0.249267578125,1.093017578125,0.1455078125,20.366412213740457,2.3435114503816794,12.572519083969466,34.03588235294118
-0.23779296875,1.13134765625,0.148193359375,26.923664122137403,5.526717557251908,-2.2748091603053435,33.235882352941175
-0.260498046875,1.110107421875,0.156005859375,17.14503816793893,6.526717557251908,-18.450381679389313,28.012352941176474
-0.68115234375,1.30810546875,0.141845703125,-5.251908396946565,-0.2366412213740458,-12.473282442748092,29.51823529411765
-0.585693359375,1.225341796875,0.15234375,-13.786259541984732,1.748091603053435,29.641221374045802,29.51823529411765
-0.849609375,1.27001953125,0.14111328125,9.732824427480915,1.0229007633587786,1.1297709923664123,32.57705882352941
-0.788818359375,1.247314453125,0.141845703125,2.213740458015267,3.854961832061069,4.030534351145038,33.75352941176471
-0.98095703125,1.31884765625,0.152099609375,-0.1297709923664122,-1.1145038167938932,-0.08396946564885496,34.93
-1.074951171875,1.1025390625,0.14599609375,-3.5419847328244276,-0.7938931297709924,15.396946564885496,37.04764705882353
-0.98974609375,1.208984375,0.14794921875,1.381679389312977,0.916030534351145,0.6412213740458015,36.15352941176471
-1.236328125,1.240478515625,0.154541015625,-2.435114503816794,-0.3511450381679389,13.633587786259541,36.24764705882353
-1.289794921875,1.087890625,0.154052734375,0.6870229007633588,0.5648854961832062,-1.4885496183206106,36.24764705882353
-1.26806640625,1.28955078125,0.150146484375,1.4732824427480915,0.45038167938931295,20.389312977099237,36.29470588235294
-1.442626953125,1.13134765625,0.146728515625,5.366412213740458,0.9618320610687023,0.10687022900763359,34.788823529411765
-1.682373046875,1.25,0.15087890625,-2.7557251908396947,1.9389312977099236,-11.282442748091603,37.00058823529412
-1.443603515625,0.981689453125,0.147216796875,1.5801526717557253,-1.7328244274809161,11.557251908396946,36.29470588235294
-1.589599609375,1.28759765625,0.153076171875,0.6030534351145038,1.4045801526717556,-5.312977099236641,36.15352941176471
-1.67431640625,1.059326171875,0.142333984375,1.297709923664122,1.0534351145038168,8.053435114503817,37.04764705882353
-1.751708984375,1.236572265625,0.14794921875,0.2900763358778626,0.08396946564885496,-7.732824427480916,36.85941176470588
-1.659912109375,1.061279296875,0.14404296875,-0.8091603053435115,0.9236641221374046,9.80916030534351,36.29470588235294
-1.780029296875,1.233642578125,0.146240234375,-1.816793893129771,-1.5877862595419847,1.83206106870229,37.04764705882353
-1.77783203125,1.201171875,0.149169921875,-0.9618320610687023,-1.633587786259542,15.381679389312977,37.00058823529412
-1.763671875,1.245849609375,0.157958984375,-1.8625954198473282,-0.16030534351145037,9.702290076335878,36.53
-1.7607421875,1.194580078125,0.155517578125,2.6412213740458017,0.07633587786259542,-3.6793893129770994,36.341764705882355
-1.793212890625,1.11328125,0.149658203125,-1.717557251908397,-1.099236641221374,5.740458015267175,37.65941176470589
-1.743896484375,1.168701171875,0.1494140625,0.648854961832061,0.07633587786259542,6.0534351145038165,37.00058823529412
-1.67919921875,1.109375,0.147216796875,-0.8015267175572519,1.8854961832061068,2.404580152671756,36.43588235294118
-1.73046875,1.142578125,0.1513671875,-0.022900763358778626,1.916030534351145,8.229007633587786,36.012352941176474
-1.69482421875,1.298828125,0.1416015625,-1.717557251908397,-1.534351145038168,5.549618320610687,37.04764705882353
-1.572998046875,1.0546875,0.144287109375,0.6335877862595419,0.7938931297709924,4.068702290076335,36.012352941176474
-1.693603515625,1.218505859375,0.153076171875,-1.251908396946565,1.3282442748091603,13.82442748091603,36.76529411764706
-1.513427734375,1.204345703125,0.1416015625,0.6946564885496184,-0.5114503816793893,-6.183206106870229,36.24764705882353
-1.510986328125,1.0439453125,0.153076171875,1.0687022900763359,0.22137404580152673,9.923664122137405,36.341764705882355
-1.462890625,1.202880859375,0.146484375,-1.4809160305343512,-0.007633587786259542,-2.1297709923664123,36.29470588235294
-1.296142578125,0.94189453125,0.151123046875,4.740458015267175,-1.916030534351145,13.442748091603054,35.25941176470588
-1.35546875,1.34423828125,0.141357421875,5.778625954198473,0.8091603053435115,-1.2061068702290076,34.74176470588235
-1.141357421875,1.121337890625,0.141845703125,-0.732824427480916,1.381679389312977,9.908396946564885,36.29470588235294
-1.208984375,1.320068359375,0.146240234375,1.3893129770992367,-1.9465648854961832,15.381679389312977,36.24764705882353
-1.00830078125,1.2802734375,0.15234375,-1.3511450381679388,-1.0458015267175573,-9.931297709923664,36.24764705882353
-0.861572265625,1.1884765625,0.151123046875,-2.5572519083969465,1.748091603053435,8.068702290076336,36.24764705882353
-0.864013671875,1.134521484375,0.1484375,-3.16793893129771,-1.6870229007633588,-0.5801526717557252,36.85941176470588
-0.660400390625,1.161376953125,0.150634765625,-2.4885496183206106,-1.1450381679389312,13.0,36.341764705882355
-0.39599609375,1.375732421875,0.1416015625,-0.7557251908396947,0.6030534351145038,22.251908396946565,35.25941176470588
-0.69287109375,1.089111328125,0.1435546875,1.6793893129770991,1.16793893129771,-17.16030534351145,36.341764705882355
-0.29150390625,1.223876953125,0.146728515625,-1.702290076335878,-0.6106870229007634,7.549618320610687,36.76529411764706
-0.278564453125,1.12060546875,0.149658203125,-0.3511450381679389,-0.3816793893129771,5.633587786259542,35.400588235294116
-0.266357421875,1.04931640625,0.1484375,-0.26717557251908397,-0.25190839694656486,7.488549618320611,36.15352941176471
0.00048828125,1.358642578125,0.1513671875,-0.8015267175572519,-0.5343511450381679,-2.519083969465649,36.15352941176471
0.08740234375,1.131591796875,0.146484375,-1.83206106870229,0.6793893129770993,20.0381679389313,36.906470588235294
0.2109375,1.200439453125,0.140869140625,-1.5419847328244274,-0.33587786259541985,-2.16793893129771,36.29470588235294
0.16943359375,1.2080078125,0.15380859375,-1.5267175572519085,-1.282442748091603,-0.1450381679389313,37.18882352941176
0.513671875,1.27099609375,0.1484375,1.4809160305343512,-1.7251908396946565,5.190839694656488,36.29470588235294
0.389404296875,1.15625,0.15087890625,-2.984732824427481,-0.4961832061068702,17.282442748091604,36.906470588235294
0.5458984375,1.1826171875,0.142822265625,-0.366412213740458,-1.1297709923664123,6.740458015267175,38.55352941176471
0.78466796875,1.309326171875,0.146484375,0.07633587786259542,-1.16793893129771,22.450381679389313,39.777058823529416
0.760986328125,1.2587890625,0.1474609375,-2.984732824427481,1.0076335877862594,-15.259541984732824,40.012352941176474
0.823486328125,1.260498046875,0.15234375,-1.9618320610687023,-0.8702290076335878,5.061068702290076,42.177058823529414
1.02978515625,1.306640625,0.15576171875,-0.9770992366412213,-0.5267175572519084,-7.251908396946565,43.071176470588235
0.92236328125,1.23291015625,0.15234375,-1.4961832061068703,-0.2595419847328244,7.6183206106870225,45.18882352941176
1.1435546875,1.234130859375,0.1455078125,-0.16030534351145037,-1.4427480916030535,-1.6870229007633588,47.447647058823534
1.2890625,1.109375,0.150634765625,-5.793893129770993,-2.068702290076336,6.923664122137405,45.28294117647059
1.43212890625,0.982177734375,0.145751953125,-3.5267175572519083,-2.7557251908396947,6.977099236641221,40.76529411764706
1.460205078125,1.00439453125,0.143310546875,-5.0458015267175576,-1.2366412213740459,1.7938931297709924,36.24764705882353
1.47607421875,1.205810546875,0.15478515625,-1.5419847328244274,-1.3587786259541985,10.992366412213741,36.1064705882353
1.42138671875,1.207763671875,0.14990234375,-3.0916030534351147,1.7709923664122138,0.1450381679389313,36.71823529411765
1.6484375,1.208251953125,0.155029296875,-0.6106870229007634,1.3740458015267176,12.267175572519085,36.29470588235294
1.5322265625,1.18408203125,0.147705078125,-0.9923664122137404,0.06870229007633588,14.366412213740459,36.85941176470588
1.6103515625,1.147705078125,0.140869140625,-1.534351145038168,1.5572519083969465,0.22137404580152673,36.76529411764706
1.663330078125,1.205810546875,0.142333984375,-1.549618320610687,1.2595419847328244,17.786259541984734,37.04764705882353
1.739501953125,1.215087890625,0.140625,0.04580152671755725,-1.5038167938931297,3.7404580152671754,37.04764705882353
1.646240234375,1.06005859375,0.152099609375,1.366412213740458,1.2213740458015268,2.267175572519084,36.29470588235294
1.748779296875,1.205078125,0.148193359375,1.2595419847328244,0.6259541984732825,8.213740458015268,36.76529411764706
1.754638671875,1.162353515625,0.15283203125,1.1984732824427482,-0.4351145038167939,-1.984732824427481,36.012352941176474
1.66162109375,1.24560546875,0.147216796875,-0.183206106870229,1.6870229007633588,4.3816793893129775,37.09470588235294
1.713134765625,1.24560546875,0.142578125,0.6793893129770993,0.09923664122137404,8.19083969465649,37.09470588235294
1.6923828125,1.20751953125,0.1416015625,-1.2366412213740459,1.5114503816793894,2.145038167938931,37.09470588235294
1.67822265625,1.1953125,0.15478515625,-1.5419847328244274,1.6106870229007633,-1.6106870229007633,36.906470588235294
1.6650390625,1.221435546875,0.146484375,-1.0076335877862594,1.0076335877862594,7.916030534351145,37.18882352941176
1.66796875,1.214599609375,0.1435546875,1.702290076335878,-1.7328244274809161,-2.0076335877862594,36.15352941176471
1.662841796875,1.1826171875,0.142578125,-0.549618320610687,1.4809160305343512,2.0,37.235882352941175
1.529541015625,1.125732421875,0.143310546875,-0.4732824427480916,1.3893129770992367,8.419847328244275,36.24764705882353
1.51123046875,1.230712890625,0.148681640625,0.4732824427480916,0.022900763358778626,8.320610687022901,37.18882352941176
1.505859375,1.15478515625,0.151611328125,1.0229007633587786,-1.4961832061068703,1.633587786259542,37.00058823529412
1.29638671875,1.14794921875,0.149658203125,-1.1068702290076335,0.4732824427480916,14.038167938931299,37.18882352941176
1.415283203125,1.279541015625,0.150146484375,-2.312977099236641,-0.5572519083969466,-6.2748091603053435,37.18882352941176
1.279052734375,1.16650390625,0.146484375,-1.0,-1.2900763358778626,7.580152671755725,37.04764705882353
1.15380859375,1.32568359375,0.14306640625,-0.4351145038167939,0.6717557251908397,4.5038167938931295,36.012352941176474
1.147216796875,1.109375,0.1533203125,-0.6412213740458015,1.1526717557251909,4.152671755725191,36.85941176470588
0.98046875,1.180419921875,0.14453125,-2.900763358778626,1.3358778625954197,6.526717557251908,36.906470588235294
0.9892578125,1.227783203125,0.14306640625,-3.6946564885496183,1.8702290076335877,2.50381679389313,36.76529411764706
0.899169921875,1.13134765625,0.1552734375,-5.66412213740458,1.8702290076335877,16.076335877862597,37.09470588235294
0.712890625,1.25830078125,0.153564453125,-9.351145038167939,-0.3053435114503817,5.702290076335878,36.71823529411765
0.762939453125,1.129638671875,0.1416015625,-3.7786259541984735,-1.9236641221374047,-0.04580152671755725,36.85941176470588
0.459716796875,1.1650390625,0.1533203125,-3.6259541984732824,0.9923664122137404,4.770992366412214,37.04764705882353
0.516357421875,1.186767578125,0.14404296875,-2.030534351145038,-1.2671755725190839,3.8625954198473282,36.012352941176474
0.368896484375,1.13232421875,0.155029296875,-3.7786259541984735,1.3511450381679388,14.32824427480916,36.341764705882355
0.26806640625,1.211669921875,0.14404296875,-0.549618320610687,0.3816793893129771,-6.877862595419847,35.54176470588236
0.081787109375,1.040771484375,0.147705078125,-0.9007633587786259,0.6717557251908397,14.435114503816793,35.400588235294116
0.13671875,1.23095703125,0.153076171875,4.9465648854961835,1.2213740458015268,1.4045801526717556,34.03588235294118
-0.027587890625,1.036376953125,0.149658203125,9.13740458015267,2.618320610687023,27.885496183206108,33.235882352941175
-0.381103515625,1.083251953125,0.155029296875,13.709923664122137,2.9236641221374047,7.3816793893129775,34.64764705882353
-0.126953125,1.1845703125,0.1552734375,28.931297709923665,2.427480916030534,-8.50381679389313,32.57705882352941
-0.225341796875,1.13232421875,0.14794921875,13.106870229007633,8.801526717557252,-16.862595419847327,26.506470588235295
-0.792236328125,1.274169921875,0.151123046875,-5.984732824427481,-0.2824427480916031,3.351145038167939,29.988823529411768
-0.6591796875,1.179931640625,0.144287109375,-13.48091603053435,-1.8015267175572518,30.16793893129771,29.23588235294118
-0.80126953125,1.357177734375,0.140869140625,13.725190839694656,3.1297709923664123,-24.99236641221374,33.28294117647059
-0.8974609375,1.02099609375,0.152587890625,3.7099236641221376,1.6717557251908397,19.33587786259542,33.98882352941177
-0.791015625,1.46728515625,0.145263671875,-3.3282442748091605,-0.4732824427480916,3.068702290076336,34.506470588235295
-1.17041015625,1.135009765625,0.147216796875,-2.7099236641221376,0.22137404580152673,11.893129770992367,37.09470588235294
-1.146240234375,1.140869140625,0.144775390625,0.3282442748091603,1.0229007633587786,8.564885496183207,37.00058823529412
-1.108154296875,1.339599609375,0.140625,-0.12213740458015267,-1.7404580152671756,1.5038167938931297,35.25941176470588
-1.304931640625,1.040771484375,0.1455078125,-3.2595419847328246,1.916030534351145,10.312977099236642,36.012352941176474
-1.445556640625,1.224365234375,0.1416015625,-1.2595419847328244,0.5343511450381679,12.198473282442748,37.00058823529412
-1.47900390625,1.327880859375,0.154296875,1.0916030534351144,1.5801526717557253,4.038167938931298,36.15352941176471
-1.39453125,1.2080078125,0.14501953125,3.7099236641221376,-1.4351145038167938,-11.732824427480915,36.24764705882353
-1.60400390625,1.002197265625,0.152099609375,-0.25190839694656486,1.3969465648854962,3.946564885496183,36.85941176470588
-1.525390625,1.111328125,0.154296875,2.3740458015267176,0.030534351145038167,-5.412213740458015,36.341764705882355
-1.70849609375,1.118896484375,0.1484375,-1.0076335877862594,1.4122137404580153,15.885496183206106,36.012352941176474
-1.68994140625,1.296875,0.144775390625,0.5114503816793893,0.8625954198473282,0.17557251908396945,36.76529411764706
-1.751220703125,1.205810546875,0.151123046875,-1.816793893129771,0.9312977099236641,-3.9083969465648853,37.09470588235294
-1.68798828125,0.952392578125,0.154541015625,0.48091603053435117,-1.7633587786259541,13.488549618320612,36.24764705882353
-1.791748046875,1.347412109375,0.14453125,-0.1297709923664122,-1.786259541984733,-0.3435114503816794,36.71823529411765
-1.78076171875,1.087890625,0.143798828125,1.8015267175572518,-1.7557251908396947,11.274809160305344,36.24764705882353
-1.794921875,1.232177734375,0.146484375,-0.03816793893129771,1.717557251908397,4.00763358778626,36.341764705882355
-1.75341796875,1.19873046875,0.146240234375,1.1145038167938932,-0.6335877862595419,1.9236641221374047,36.24764705882353
-1.77490234375,1.1494140625,0.150634765625,-1.2671755725190839,1.6030534351145038,2.366412213740458,36.71823529411765
-1.72998046875,1.0986328125,0.14306640625,-0.09923664122137404,1.213740458015267,9.786259541984732,36.012352941176474
-1.680908203125,1.202880859375,0.155029296875,1.3129770992366412,-1.183206106870229,3.7557251908396947,36.29470588235294
-1.720947265625,1.19482421875,0.15087890625,-0.8702290076335878,1.1984732824427482,6.213740458015267,37.00058823529412
-1.64013671875,1.16650390625,0.151611328125,0.549618320610687,0.3816793893129771,17.702290076335878,37.04764705882353
-1.599365234375,1.169921875,0.1455078125,1.9083969465648856,-0.6564885496183206,-2.1526717557251906,35.68294117647059
-1.614501953125,1.1171875,0.1552734375,-0.5343511450381679,-1.8778625954198473,3.4580152671755724,36.1064705882353
-1.475830078125,1.052001953125,0.1484375,3.786259541984733,0.1984732824427481,9.84732824427481,36.341764705882355
-1.2587890625,1.3134765625,0.142822265625,0.4122137404580153,-0.7786259541984732,-5.969465648854962,36.341764705882355
-1.40673828125,0.9423828125,0.155517578125,0.5343511450381679,1.381679389312977,9.84732824427481,36.24764705882353
-1.39697265625,1.384033203125,0.1484375,1.9389312977099236,-1.7328244274809161,7.66412213740458,36.48294117647059
-1.06005859375,1.149169921875,0.14794921875,0.5648854961832062,1.2290076335877862,-5.648854961832061,36.1064705882353
-1.136474609375,1.12939453125,0.14453125,-1.3358778625954197,1.282442748091603,10.267175572519085,36.29470588235294
-1.034912109375,1.24853515625,0.1494140625,-1.1297709923664123,-1.9541984732824427,13.450381679389313,37.00058823529412
-0.971923828125,1.23291015625,0.154296875,-1.015267175572519,-1.1984732824427482,-4.083969465648855,36.1064705882353
-0.814208984375,1.1083984375,0.155517578125,-2.5267175572519083,-1.0381679389312977,-0.21374045801526717,36.24764705882353
-0.7890625,1.16845703125,0.146728515625,-5.603053435114504,1.7099236641221374,-15.007633587786259,37.00058823529412
-0.474609375,1.136962890625,0.143310546875,-1.6717557251908397,0.7862595419847328,15.664122137404581,37.00058823529412
-0.686767578125,1.11962890625,0.147216796875,1.0534351145038168,0.8778625954198473,16.641221374045802,35.49470588235294
-0.38134765625,1.313232421875,0.1416015625,-1.1450381679389312,-1.4198473282442747,13.274809160305344,36.76529411764706
-0.314697265625,1.11572265625,0.146484375,-0.6793893129770993,-0.05343511450381679,-7.977099236641221,36.29470588235294
-0.113525390625,1.197998046875,0.141357421875,1.5572519083969465,0.2748091603053435,14.465648854961833,35.96529411764706
-0.16015625,1.2314453125,0.142578125,-1.2290076335877862,-0.25190839694656486,-2.4580152671755724,36.29470588235294
0.031494140625,1.1962890625,0.14697265625,-1.465648854961832,-0.6564885496183206,5.793893129770993,36.29470588235294
0.17138671875,1.19970703125,0.15576171875,-1.786259541984733,1.7938931297709924,0.29770992366412213,37.18882352941176
0.137939453125,1.137451171875,0.14208984375,-2.648854961832061,-0.13740458015267176,2.954198473282443,36.43588235294118
0.376708984375,1.259521484375,0.14306640625,-1.0687022900763359,-0.05343511450381679,7.572519083969466,36.43588235294118
0.44091796875,1.27001953125,0.141845703125,-0.9618320610687023,-0.6793893129770993,6.3893129770992365,37.04764705882353
0.470947265625,1.140625,0.153564453125,-3.053435114503817,-0.7557251908396947,12.282442748091603,38.36529411764706
0.66552734375,1.249267578125,0.150634765625,0.1450381679389313,1.6717557251908397,11.877862595419847,40.671176470588236
0.768798828125,1.2919921875,0.15185546875,-0.6412213740458015,-0.9312977099236641,5.572519083969466,40.53
0.8408203125,1.275634765625,0.142578125,-2.4122137404580153,-1.7251908396946565,8.412213740458014,41.98882352941177
0.858154296875,1.130126953125,0.151611328125,0.40458015267175573,-0.48091603053435117,-12.312977099236642,43.96529411764706
1.0615234375,1.387451171875,0.148681640625,-5.549618320610687,-0.007633587786259542,9.068702290076336,44.57705882352941
1.096923828125,1.296630859375,0.15478515625,3.4427480916030535,-1.8015267175572518,-7.0,46.03588235294118
1.220947265625,1.068603515625,0.147705078125,-7.091603053435114,-2.8244274809160306,12.366412213740459,43.63588235294118
1.33935546875,1.026123046875,0.1474609375,-0.9923664122137404,-1.9541984732824427,0.007633587786259542,40.059411764705885
1.466552734375,1.047119140625,0.14453125,-0.9618320610687023,0.6259541984732825,2.0916030534351147,36.29470588235294
1.38818359375,1.10498046875,0.15087890625,-0.9389312977099237,-0.030534351145038167,11.679389312977099,36.29470588235294
1.486083984375,1.303466796875,0.142578125,-2.2519083969465647,-0.916030534351145,5.770992366412214,37.235882352941175
1.508544921875,1.11181640625,0.1474609375,-1.9236641221374047,-1.8244274809160306,15.595419847328245,36.76529411764706
1.6240234375,1.217041015625,0.14794921875,1.5114503816793894,0.6717557251908397,4.458015267175573,36.15352941176471
1.569580078125,1.14013671875,0.143310546875,-0.17557251908396945,0.9847328244274809,6.114503816793893,36.48294117647059
1.675048828125,1.258056640625,0.149169921875,-0.2366412213740458,0.8320610687022901,8.274809160305344,36.29470588235294
1.752197265625,1.170654296875,0.14453125,0.4122137404580153,0.2748091603053435,2.1908396946564888,37.00058823529412
1.671142578125,1.108642578125,0.141357421875,1.3053435114503817,1.5419847328244274,8.274809160305344,35.96529411764706
1.753173828125,1.2490234375,0.1416015625,0.3282442748091603,0.46564885496183206,2.427480916030534,36.906470588235294
1.67822265625,1.15283203125,0.1484375,0.8549618320610687,0.03816793893129771,5.893129770992366,36.906470588235294
1.745849609375,1.257568359375,0.141357421875,1.1374045801526718,0.7786259541984732,0.5343511450381679,36.906470588235294
1.733154296875,1.178955078125,0.154296875,0.15267175572519084,1.381679389312977,6.427480916030534,37.04764705882353
1.683349609375,1.170654296875,0.15185546875,-0.5648854961832062,0.8931297709923665,4.1679389312977095,36.906470588235294
1.681884765625,1.246337890625,0.140625,-1.6259541984732824,0.48854961832061067,2.053435114503817,37.04764705882353
1.7099609375,1.173828125,0.141357421875,-1.7328244274809161,1.6564885496183206,2.2213740458015265,37.00058823529412
1.569091796875,1.2255859375,0.155029296875,0.42748091603053434,0.2900763358778626,2.1603053435114505,36.906470588235294
1.6376953125,1.189453125,0.154296875,-1.4732824427480915,-0.25190839694656486,-6.030534351145038,37.04764705882353
1.627685546875,1.18994140625,0.154052734375,-0.44274809160305345,-1.1145038167938932,9.709923664122137,36.15352941176471
1.453369140625,1.119873046875,0.149169921875,0.6564885496183206,0.061068702290076333,6.6106870229007635,37.04764705882353
1.4326171875,1.17431640625,0.141845703125,-1.0076335877862594,1.6488549618320612,0.4122137404580153,36.906470588235294
1.44970703125,1.20751953125,0.151123046875,-0.13740458015267176,0.2366412213740458,21.85496183206107,36.24764705882353
1.369140625,1.223388671875,0.14501953125,-0.9541984732824428,0.6183206106870229,6.122137404580153,36.906470588235294
1.251953125,1.24365234375,0.153076171875,-1.1603053435114503,-0.9923664122137404,-4.343511450381679,37.235882352941175
1.16015625,1.202392578125,0.1416015625,-1.015267175572519,0.32061068702290074,8.17557251908397,36.906470588235294
1.087158203125,1.12939453125,0.14453125,-2.5343511450381677,-0.5343511450381679,9.580152671755725,37.04764705882353
1.020263671875,1.217041015625,0.1455078125,-1.4580152671755726,0.44274809160305345,-5.595419847328245,37.00058823529412
0.890869140625,1.113037109375,0.156005859375,-1.5190839694656488,0.732824427480916,8.106870229007633,37.09470588235294
0.89892578125,1.243408203125,0.142822265625,-5.32824427480916,1.6488549618320612,14.442748091603054,37.00058823529412
0.736572265625,1.236328125,0.144775390625,-5.190839694656488,1.702290076335878,11.770992366412214,36.85941176470588
0.726806640625,1.183349609375,0.140625,-0.8091603053435115,0.08396946564885496,4.190839694656488,36.341764705882355
0.498291015625,1.14697265625,0.154296875,-3.0381679389312977,0.3435114503816794,-5.740458015267175,36.012352941176474
0.47119140625,1.166259765625,0.14892578125,-5.083969465648855,1.8778625954198473,11.786259541984732,36.24764705882353
0.408935546875,1.229248046875,0.140869140625,-1.9541984732824427,0.6335877862595419,-4.801526717557252,36.341764705882355
0.2158203125,1.122802734375,0.14453125,-3.045801526717557,1.1450381679389312,7.00763358778626,34.83588235294118
0.1689453125,1.125244140625,0.143310546875,1.4427480916030535,0.007633587786259542,-0.6564885496183206,33.98882352941177
0.04443359375,1.102294921875,0.146484375,0.8091603053435115,3.6946564885496183,17.885496183206108,33.33
-0.04833984375,1.063720703125,0.152587890625,8.374045801526718,3.5267175572519083,19.229007633587788,33.28294117647059
-0.357177734375,1.0966796875,0.1484375,23.27480916030534,3.648854961832061,0.20610687022900764,36.29470588235294
-0.14697265625,1.225341796875,0.150634765625,25.0381679389313,4.511450381679389,-22.938931297709924,31.024117647058823
-0.539794921875,1.152099609375,0.154052734375,-5.885496183206107,3.8396946564885495,-7.603053435114504,27.87117647058824
-0.490966796875,1.264404296875,0.149658203125,-8.099236641221374,-1.4809160305343512,36.847328244274806,30.271176470588237
-0.654541015625,1.273193359375,0.14990234375,10.198473282442748,0.6946564885496184,-0.08396946564885496,32.71823529411765
-0.854736328125,1.286376953125,0.150390625,0.3435114503816794,0.7099236641221374,-11.083969465648854,33.28294117647059
-0.766357421875,1.10595703125,0.14404296875,-0.09923664122137404,1.0763358778625953,16.83969465648855,33.00058823529412
-1.0126953125,1.37255859375,0.148193359375,-0.549618320610687,-0.9312977099236641,3.8473282442748094,35.54176470588236
-1.1728515625,1.145751953125,0.154052734375,-1.1145038167938932,-1.7099236641221374,11.442748091603054,36.43588235294118
-1.09130859375,1.100830078125,0.1533203125,-1.6412213740458015,-0.05343511450381679,5.374045801526718,36.15352941176471
-1.216552734375,1.22802734375,0.145751953125,-0.08396946564885496,1.4351145038167938,-3.564885496183206,35.96529411764706
-1.3125,1.116455078125,0.146240234375,-1.6412213740458015,-0.8320610687022901,15.465648854961833,37.04764705882353
-1.23388671875,1.25146484375,0.15283203125,-0.21374045801526717,1.3511450381679388,0.4351145038167939,36.29470588235294
-1.580322265625,1.089111328125,0.150390625,-0.8854961832061069,1.3282442748091603,12.679389312977099,35.91823529411765
-1.4658203125,1.216796875,0.15087890625,1.5877862595419847,0.2748091603053435,-1.9312977099236641,36.1064705882353
-1.619384765625,1.21630859375,0.15185546875,1.2671755725190839,0.0,11.816793893129772,37.09470588235294
-1.642333984375,1.098876953125,0.145263671875,1.8473282442748091,1.1374045801526718,2.885496183206107,36.341764705882355
-1.62646484375,1.340087890625,0.14501953125,1.4198473282442747,-0.22137404580152673,-6.0534351145038165,36.29470588235294
-1.594482421875,0.984130859375,0.153564453125,0.7099236641221374,1.5725190839694656,0.08396946564885496,35.400588235294116
-1.854736328125,1.20068359375,0.14306640625,-2.366412213740458,1.2748091603053435,5.870229007633588,37.04764705882353
-1.716796875,1.258056640625,0.1435546875,-1.5801526717557253,1.8091603053435115,11.969465648854962,37.04764705882353
-1.7490234375,1.228271484375,0.143798828125,1.0687022900763359,-0.6030534351145038,-0.061068702290076333,36.29470588235294
-1.84130859375,1.024169921875,0.143798828125,-1.0381679389312977,-1.8091603053435115,13.572519083969466,37.04764705882353
-1.736083984375,1.3193359375,0.153076171875,1.3206106870229009,1.297709923664122,-3.877862595419847,36.24764705882353
-1.73876953125,1.087646484375,0.14453125,-1.702290076335878,-0.3282442748091603,5.847328244274809,37.00058823529412
-1.791748046875,1.203857421875,0.146484375,1.8854961832061068,0.2748091603053435,9.86259541984733,36.24764705882353
-1.72705078125,1.169921875,0.150634765625,1.7251908396946565,-1.1297709923664123,1.9312977099236641,36.15352941176471
-1.70654296875,1.13720703125,0.148193359375,-1.6412213740458015,-1.3358778625954197,5.801526717557252,37.00058823529412
-1.662841796875,1.172119140625,0.144775390625,1.9312977099236641,0.46564885496183206,4.061068702290076,36.341764705882355
-1.60009765625,1.0751953125,0.155517578125,1.1068702290076335,1.5648854961832062,-3.8091603053435112,36.15352941176471
-1.56591796875,1.251953125,0.146240234375,-1.4732824427480915,-1.3358778625954197,13.603053435114504,37.04764705882353
-1.59619140625,1.045166015625,0.151611328125,1.0,-1.1984732824427482,1.6870229007633588,36.15352941176471
-1.37744140625,1.265869140625,0.158447265625,3.33587786259542,-1.786259541984733,15.48091603053435,35.777058823529416
-1.560302734375,1.230712890625,0.1494140625,1.6641221374045803,1.3740458015267176,-3.7786259541984735,36.15352941176471
-1.2333984375,0.96484375,0.14111328125,2.0763358778625953,-1.6793893129770991,11.587786259541986,36.24764705882353
-1.298583984375,1.24609375,0.152099609375,3.7404580152671754,-0.48091603053435117,1.4045801526717556,34.506470588235295
-1.11865234375,1.243408203125,0.1494140625,3.50381679389313,0.7557251908396947,10.458015267175572,35.21235294117647
-1.23681640625,1.26318359375,0.1416015625,-1.3358778625954197,1.297709923664122,-17.541984732824428,37.04764705882353
-0.909423828125,1.025634765625,0.146240234375,-3.6946564885496183,-0.183206106870229,17.580152671755727,36.24764705882353
-0.995361328125,1.265380859375,0.14306640625,-3.7480916030534353,1.702290076335878,5.923664122137405,36.906470588235294
-0.848388671875,1.17724609375,0.150146484375,-0.2366412213740458,0.3816793893129771,0.0916030534351145,36.15352941176471
-0.715576171875,1.240234375,0.142822265625,-3.3969465648854964,1.4885496183206106,4.282442748091603,36.906470588235294
-0.533447265625,1.126220703125,0.1494140625,-1.4045801526717556,0.7633587786259542,4.0,36.15352941176471
-0.616455078125,1.05078125,0.141357421875,-1.7633587786259541,-0.1297709923664122,5.427480916030534,35.96529411764706
-0.331298828125,1.43408203125,0.148193359375,-1.8625954198473282,-0.8320610687022901,3.8244274809160306,36.76529411764706
-0.289794921875,1.091552734375,0.141357421875,1.0305343511450382,0.6259541984732825,-1.2595419847328244,36.341764705882355
-0.3134765625,1.08349609375,0.14892578125,-3.66412213740458,-0.183206106870229,15.030534351145038,37.04764705882353
-0.004150390625,1.276611328125,0.142333984375,-0.32061068702290074,-0.12213740458015267,3.198473282442748,35.96529411764706
0.03515625,1.27099609375,0.14794921875,0.8854961832061069,-1.1984732824427482,-2.2061068702290076,35.91823529411765
0.132080078125,1.121826171875,0.14111328125,-2.1755725190839694,-0.3053435114503817,15.083969465648854,36.29470588235294
0.21826171875,1.171875,0.149169921875,-1.816793893129771,-0.2366412213740458,-10.061068702290076,37.00058823529412
0.4033203125,1.255615234375,0.150146484375,-1.1908396946564885,-0.7938931297709924,13.198473282442748,37.04764705882353
0.440673828125,1.16943359375,0.15478515625,-1.3358778625954197,-1.9389312977099236,17.297709923664122,37.941764705882356
0.54248046875,1.220458984375,0.14111328125,-0.6641221374045801,-0.16793893129770993,1.8091603053435115,38.69470588235294
0.64501953125,1.193115234375,0.147705078125,1.4351145038167938,1.0076335877862594,8.091603053435115,39.16529411764706
0.768798828125,1.302978515625,0.14794921875,-1.6793893129770991,0.7633587786259542,9.961832061068701,41.61235294117647
0.818115234375,1.23974609375,0.1494140625,-0.4198473282442748,-1.717557251908397,6.709923664122138,41.61235294117647
0.957763671875,1.28076171875,0.156005859375,1.2595419847328244,-1.9083969465648856,-8.534351145038167,42.177058823529414
0.969970703125,1.29296875,0.141357421875,-1.465648854961832,-1.0763358778625953,5.312977099236641,45.33
1.078369140625,1.263427734375,0.14794921875,-4.129770992366412,-0.5648854961832062,2.4198473282442747,46.08294117647059
1.2119140625,1.111328125,0.15380859375,-2.213740458015267,-2.7480916030534353,4.32824427480916,45.28294117647059
1.38427734375,1.0615234375,0.141357421875,-4.038167938931298,-2.7099236641221376,2.7251908396946565,40.53
1.47705078125,1.072998046875,0.150390625,-4.076335877862595,1.0305343511450382,7.923664122137405,37.09470588235294
1.414306640625,1.115966796875,0.1533203125,-2.4198473282442747,-1.5038167938931297,-6.1679389312977095,36.29470588235294
1.446044921875,1.134521484375,0.140625,-0.549618320610687,-1.816793893129771,23.3206106870229,37.18882352941176
1.598876953125,1.325439453125,0.155029296875,-1.16793893129771,0.6030534351145038,-1.4274809160305344,36.76529411764706
1.54736328125,1.070556640625,0.1484375,-1.6030534351145038,1.8549618320610688,8.01526717557252,36.76529411764706
1.61376953125,1.185546875,0.15380859375,-2.122137404580153,1.8396946564885497,18.114503816793892,36.29470588235294
1.603271484375,1.21142578125,0.141845703125,-0.2824427480916031,1.6106870229007633,-1.6564885496183206,37.00058823529412
1.69873046875,1.199951171875,0.1552734375,1.748091603053435,0.8396946564885496,13.793893129770993,37.00058823529412
1.677978515625,1.20947265625,0.1455078125,1.3358778625954197,1.3511450381679388,-3.549618320610687,36.76529411764706
1.77392578125,1.1025390625,0.154541015625,-1.5648854961832062,1.297709923664122,4.32824427480916,37.00058823529412
1.689208984375,1.2236328125,0.145751953125,-0.5877862595419847,1.6259541984732824,8.221374045801527,37.04764705882353
1.762939453125,1.19921875,0.14306640625,1.7786259541984732,1.0076335877862594,2.435114503816794,36.15352941176471
1.737548828125,1.190185546875,0.141845703125,-0.44274809160305345,1.9389312977099236,6.572519083969466,36.29470588235294
1.70849609375,1.1142578125,0.152099609375,-0.8320610687022901,1.3435114503816794,0.11450381679389313,36.24764705882353
1.686767578125,1.240478515625,0.1474609375,-1.8091603053435115,-0.6946564885496184,7.427480916030534,37.00058823529412
1.692626953125,1.2490234375,0.155517578125,0.5648854961832062,1.1755725190839694,-5.847328244274809,36.29470588235294
1.608154296875,1.232177734375,0.14892578125,0.6183206106870229,0.25190839694656486,9.946564885496183,36.906470588235294
1.5693359375,1.169677734375,0.14892578125,-1.0763358778625953,-0.48854961832061067,3.6564885496183206,37.04764705882353
1.6396484375,1.185302734375,0.143798828125,-1.4732824427480915,1.4580152671755726,5.908396946564886,37.00058823529412
1.483642578125,1.21826171875,0.14111328125,0.1984732824427481,0.20610687022900764,6.0458015267175576,37.04764705882353
1.49609375,1.17529296875,0.1484375,-0.030534351145038167,1.16793893129771,6.427480916030534,37.04764705882353
1.37890625,1.165771484375,0.152587890625,-1.2061068702290076,-1.5648854961832062,5.694656488549619,36.906470588235294
1.386474609375,1.19287109375,0.14892578125,-1.8244274809160306,1.2213740458015268,-1.9541984732824427,37.00058823529412
1.327880859375,1.239990234375,0.151611328125,1.8931297709923665,0.1984732824427481,7.961832061068702,37.09470588235294
1.264892578125,1.216552734375,0.155517578125,-3.8625954198473282,1.8473282442748091,-1.7557251908396947,37.84764705882353
1.11669921875,1.050537109375,0.15234375,-1.1450381679389312,0.20610687022900764,-7.435114503816794,36.012352941176474
1.041748046875,1.203369140625,0.141845703125,-2.2290076335877864,1.534351145038168,25.748091603053435,36.24764705882353
1.03271484375,1.2470703125,0.1513671875,-1.297709923664122,1.2595419847328244,0.08396946564885496,37.00058823529412
0.829833984375,1.20458984375,0.1416015625,-3.4656488549618323,1.183206106870229,0.7709923664122137,37.09470588235294
0.7431640625,1.147216796875,0.14111328125,-5.374045801526718,-1.366412213740458,15.038167938931299,37.00058823529412
0.680908203125,1.14697265625,0.145263671875,-4.290076335877862,-1.282442748091603,7.694656488549619,36.24764705882353
0.58740234375,1.234619140625,0.15478515625,-2.900763358778626,1.549618320610687,-1.2671755725190839,35.16529411764706
0.440673828125,1.15625,0.145263671875,-3.854961832061069,1.9465648854961832,2.5419847328244276,37.18882352941176
0.31640625,1.116455078125,0.142333984375,-0.5572519083969466,0.42748091603053434,20.022900763358777,36.341764705882355
0.313232421875,1.22509765625,0.153076171875,-0.8549618320610687,0.35877862595419846,1.099236641221374,35.54176470588236
0.09814453125,1.125244140625,0.148681640625,1.1526717557251909,0.007633587786259542,-2.6564885496183206,34.08294117647059
0.038818359375,1.052978515625,0.152099609375,1.2671755725190839,3.3435114503816794,19.99236641221374,32.953529411764706
-0.0400390625,1.0830078125,0.15087890625,8.664122137404581,2.6030534351145036,4.679389312977099,33.00058823529412
-0.453857421875,1.0693359375,0.146484375,16.290076335877863,3.480916030534351,24.19083969465649,34.788823529411765
-0.162109375,1.1708984375,0.149169921875,25.12213740458015,3.480916030534351,-20.00763358778626,33.42411764705882
-0.35986328125,1.1640625,0.14892578125,12.251908396946565,6.175572519083969,-36.58015267175573,27.306470588235296
-0.65673828125,1.174072265625,0.155517578125,-8.366412213740459,-0.5190839694656488,42.603053435114504,29.377058823529413
-0.673095703125,1.289306640625,0.156494140625,-9.229007633587786,-0.8015267175572519,-4.183206106870229,30.506470588235295
-0.758544921875,1.2080078125,0.154296875,13.618320610687023,2.6106870229007635,3.9236641221374047,32.53
-0.843017578125,1.375,0.148681640625,4.427480916030534,2.2213740458015265,4.099236641221374,33.00058823529412
-1.049560546875,1.14794921875,0.1435546875,-4.221374045801527,-0.8854961832061069,12.961832061068701,36.15352941176471
-1.187255859375,1.299072265625,0.14990234375,-3.801526717557252,-0.8320610687022901,1.748091603053435,37.00058823529412
-0.837158203125,1.133056640625,0.154296875,1.0458015267175573,0.916030534351145,4.916030534351145,36.24764705882353
-1.454345703125,1.1201171875,0.14111328125,-0.9694656488549618,0.6335877862595419,17.82442748091603,36.24764705882353
-1.248046875,1.23388671875,0.15478515625,1.1603053435114503,0.9389312977099237,-3.5267175572519083,36.341764705882355
-1.397705078125,1.255126953125,0.14794921875,-1.1297709923664123,0.17557251908396945,10.320610687022901,37.612352941176475
-1.330322265625,1.017333984375,0.1552734375,3.49618320610687,0.648854961832061,0.3893129770992366,35.49470588235294
-1.6728515625,1.181884765625,0.1435546875,-1.3587786259541985,1.1984732824427482,-7.748091603053435,36.85941176470588
-1.44580078125,1.218994140625,0.154541015625,-3.3893129770992365,-0.5419847328244275,13.618320610687023,37.00058823529412
-1.669189453125,1.218017578125,0.154052734375,2.068702290076336,0.4351145038167939,4.183206106870229,36.15352941176471
-1.722900390625,1.101318359375,0.146484375,-0.5267175572519084,1.3893129770992367,-5.755725190839694,36.906470588235294
-1.655029296875,1.114501953125,0.15087890625,4.290076335877862,0.4961832061068702,0.37404580152671757,35.353529411764704
-1.793701171875,1.17626953125,0.150634765625,-5.282442748091603,-0.1297709923664122,9.244274809160306,37.65941176470589
-1.66162109375,1.1796875,0.144775390625,-0.09923664122137404,1.297709923664122,-1.7938931297709924,36.29470588235294
-1.808837890625,1.14111328125,0.144287109375,-0.7404580152671756,1.786259541984733,17.83206106870229,36.29470588235294
-1.73876953125,1.322509765625,0.142578125,-0.6183206106870229,1.4427480916030535,-3.66412213740458,37.09470588235294
-1.8076171875,1.046875,0.152099609375,1.099236641221374,-0.9389312977099237,9.625954198473282,36.29470588235294
-1.695556640625,1.13671875,0.147216796875,-0.20610687022900764,-0.5954198473282443,3.6412213740458017,36.43588235294118
-1.834228515625,1.288818359375,0.14208984375,-0.8396946564885496,-0.030534351145038167,3.8702290076335877,36.906470588235294
-1.69384765625,1.04296875,0.1533203125,1.5725190839694656,0.4351145038167939,11.778625954198473,36.341764705882355
-1.661376953125,1.24072265625,0.142822265625,-0.25190839694656486,1.8473282442748091,-5.641221374045801,36.15352941176471
-1.7412109375,1.1318359375,0.1416015625,-1.5190839694656488,0.7557251908396947,15.931297709923664,36.76529411764706
-1.66259765625,1.279296875,0.1494140625,3.2213740458015265,0.5801526717557252,-3.4732824427480917,36.24764705882353
-1.54248046875,0.964111328125,0.147216796875,-1.0,0.183206106870229,2.0839694656488548,36.906470588235294
-1.562744140625,1.318603515625,0.146484375,1.6259541984732824,1.0458015267175573,19.625954198473284,36.341764705882355
-1.5146484375,1.03369140625,0.148681640625,1.3969465648854962,-0.061068702290076333,-4.0534351145038165,36.1064705882353
-1.32080078125,1.326416015625,0.142333984375,5.67175572519084,0.8778625954198473,13.83206106870229,35.54176470588236
-1.3310546875,1.122314453125,0.142333984375,0.9083969465648855,0.6564885496183206,0.09923664122137404,36.341764705882355
-1.2783203125,1.18212890625,0.1416015625,4.847328244274809,0.22900763358778625,-7.534351145038168,35.49470588235294
-1.13818359375,1.125,0.154541015625,1.3282442748091603,0.8015267175572519,10.312977099236642,36.29470588235294
-1.142822265625,1.192626953125,0.146240234375,-1.465648854961832,0.5343511450381679,7.923664122137405,36.906470588235294
-0.953125,1.18017578125,0.146484375,-1.1984732824427482,0.26717557251908397,-3.83206106870229,36.29470588235294
-0.9443359375,1.192626953125,0.150390625,-2.7099236641221376,-0.015267175572519083,-4.083969465648855,36.48294117647059
-0.77392578125,1.081298828125,0.14892578125,-1.7633587786259541,-1.099236641221374,19.46564885496183,37.00058823529412
-0.771728515625,1.2763671875,0.148193359375,-0.816793893129771,-1.0458015267175573,-2.0610687022900764,36.24764705882353
-0.5966796875,1.212646484375,0.14208984375,-0.7862595419847328,0.3435114503816794,8.32824427480916,36.341764705882355
-0.55029296875,1.158203125,0.141357421875,-0.8091603053435115,-0.6030534351145038,-0.1450381679389313,36.43588235294118
-0.3828125,1.1259765625,0.152099609375,1.1755725190839694,-1.8015267175572518,5.702290076335878,36.24764705882353
-0.27685546875,1.171875,0.152587890625,-0.9236641221374046,-1.7786259541984732,5.519083969465649,36.012352941176474
-0.15185546875,1.277587890625,0.147705078125,-1.5801526717557253,0.3816793893129771,-5.419847328244275,37.00058823529412
-0.118408203125,1.051025390625,0.149658203125,-1.450381679389313,-0.09923664122137404,18.717557251908396,36.15352941176471
0.07470703125,1.22607421875,0.140869140625,1.3129770992366412,-1.6870229007633588,-0.0916030534351145,36.341764705882355
0.1669921875,1.276611328125,0.14501953125,-1.7404580152671756,0.46564885496183206,2.030534351145038,37.04764705882353
0.259033203125,1.1142578125,0.151611328125,0.6106870229007634,-1.9465648854961832,11.099236641221374,36.341764705882355
0.3916015625,1.189697265625,0.155029296875,-1.9389312977099236,-0.7862595419847328,-6.435114503816794,37.04764705882353
0.3505859375,1.202880859375,0.149658203125,-2.2061068702290076,-0.07633587786259542,15.992366412213741,36.76529411764706
0.588623046875,1.29541015625,0.155029296875,0.16793893129770993,0.5190839694656488,9.786259541984732,39.30647058823529
0.66455078125,1.234130859375,0.1484375,-1.8015267175572518,1.8854961832061068,-0.6335877862595419,40.624117647058824
0.7451171875,1.225341796875,0.147705078125,-3.1908396946564888,-0.8549618320610687,24.801526717557252,40.624117647058824
0.921142578125,1.28955078125,0.155029296875,-1.3129770992366412,-0.8854961832061069,-11.381679389312977,42.03588235294118
0.915771484375,1.204833984375,0.16845703125,-0.4351145038167939,-0.9618320610687023,-4.488549618320611,41.80058823529412
1.01416015625,1.35009765625,0.155517578125,-3.50381679389313,-0.5038167938931297,11.603053435114504,45.894705882352945
1.125732421875,1.253662109375,0.140625,-1.4045801526717556,-3.7251908396946565,-3.9618320610687023,46.83588235294118
1.239501953125,1.10888671875,0.146484375,-2.3282442748091605,-3.7709923664122136,6.702290076335878,43.68294117647059
1.401123046875,1.0400390625,0.14208984375,-7.213740458015267,-2.2977099236641223,5.633587786259542,40.20058823529412
1.451904296875,0.9697265625,0.15234375,-3.3740458015267176,-1.4122137404580153,-0.5725190839694656,37.09470588235294
1.44580078125,1.20703125,0.140869140625,-2.816793893129771,1.3893129770992367,-1.8473282442748091,36.012352941176474
1.465576171875,1.14208984375,0.151611328125,-1.4885496183206106,0.9847328244274809,23.610687022900763,37.00058823529412
1.583740234375,1.246826171875,0.147705078125,-1.0687022900763359,-1.4045801526717556,-0.7022900763358778,37.04764705882353
1.50341796875,1.064208984375,0.149658203125,-1.6412213740458015,1.3206106870229009,4.213740458015267,37.00058823529412
1.64404296875,1.269287109375,0.15380859375,-3.2900763358778624,1.7938931297709924,12.122137404580153,37.00058823529412
1.722900390625,1.20849609375,0.145263671875,-1.2748091603053435,0.9465648854961832,9.969465648854962,37.04764705882353
1.572509765625,1.14013671875,0.143798828125,0.17557251908396945,0.8549618320610687,4.114503816793893,37.80058823529412
1.751220703125,1.22119140625,0.15234375,0.25190839694656486,0.8702290076335878,10.450381679389313,36.85941176470588
1.749267578125,1.15478515625,0.149658203125,1.2595419847328244,0.7862595419847328,2.1068702290076335,36.85941176470588
1.630859375,1.20263671875,0.154296875,-0.3893129770992366,1.8244274809160306,4.259541984732825,37.09470588235294
1.80322265625,1.17822265625,0.150634765625,1.6488549618320612,0.9236641221374046,2.4885496183206106,36.24764705882353
1.6953125,1.199951171875,0.156005859375,0.8702290076335878,0.08396946564885496,2.3282442748091605,37.04764705882353
1.680908203125,1.180419921875,0.149169921875,-0.6564885496183206,1.381679389312977,2.282442748091603,37.00058823529412
1.76171875,1.203857421875,0.160888671875,-0.2824427480916031,1.5648854961832062,2.282442748091603,35.777058823529416
1.68017578125,1.208740234375,0.1435546875,0.21374045801526717,0.7022900763358778,8.076335877862595,37.04764705882353
1.6220703125,1.186767578125,0.14404296875,0.2748091603053435,0.030534351145038167,0.061068702290076333,37.04764705882353
1.657470703125,1.1494140625,0.15283203125,-0.6793893129770993,-0.6793893129770993,1.7709923664122138,36.15352941176471
1.504638671875,1.243896484375,0.147216796875,-1.0534351145038168,1.4122137404580153,9.83206106870229,37.04764705882353
1.525634765625,1.18798828125,0.152099609375,0.4580152671755725,0.1297709923664122,-11.572519083969466,37.04764705882353
1.513916015625,1.141845703125,0.1513671875,-1.9389312977099236,1.0534351145038168,6.3893129770992365,37.04764705882353
1.4716796875,1.240966796875,0.147216796875,-3.6259541984732824,-0.09923664122137404,19.083969465648856,37.00058823529412
1.2841796875,1.120849609375,0.15380859375,-1.4580152671755726,1.5954198473282444,4.473282442748092,35.96529411764706
1.337646484375,1.37353515625,0.14404296875,-1.8702290076335877,0.2748091603053435,2.015267175572519,37.80058823529412
1.170166015625,1.078125,0.150146484375,-3.9083969465648853,-0.3511450381679389,11.610687022900763,37.80058823529412
1.15869140625,1.179443359375,0.150634765625,-3.3053435114503817,1.7099236641221374,6.358778625954199,36.906470588235294
0.9912109375,1.1533203125,0.1484375,-1.7557251908396947,0.22900763358778625,-1.8702290076335877,36.906470588235294
1.00146484375,1.169921875,0.150634765625,-1.297709923664122,0.10687022900763359,16.69465648854962,36.29470588235294
0.88720703125,1.327392578125,0.14306640625,-2.9770992366412212,1.251908396946565,2.404580152671756,37.00058823529412
0.773193359375,1.111083984375,0.147216796875,-4.404580152671755,1.916030534351145,0.16793893129770993,35.96529411764706
0.711669921875,1.205810546875,0.142578125,-4.480916030534351,1.7404580152671756,5.885496183206107,36.341764705882355
0.543701171875,1.1689453125,0.14453125,-3.236641221374046,0.6641221374045801,-3.564885496183206,36.906470588235294
0.459228515625,1.158935546875,0.14501953125,-4.564885496183206,1.8473282442748091,15.923664122137405,35.49470588235294
0.43408203125,1.173828125,0.154052734375,-0.40458015267175573,0.7251908396946565,6.5038167938931295,36.15352941176471
0.2705078125,1.166259765625,0.14111328125,-1.6641221374045803,0.9389312977099237,-0.9694656488549618,35.58882352941177
0.22607421875,1.158203125,0.146728515625,1.534351145038168,0.31297709923664124,-0.44274809160305345,33.98882352941177
0.076416015625,1.107421875,0.14892578125,1.4427480916030535,2.3893129770992365,18.30534351145038,32.953529411764706
-0.01708984375,1.05029296875,0.14306640625,6.541984732824427,3.786259541984733,14.923664122137405,33.09470588235294
-0.30859375,1.129638671875,0.142578125,24.404580152671755,2.49618320610687,10.969465648854962,35.54176470588236
-0.2958984375,1.097412109375,0.153564453125,27.045801526717558,4.099236641221374,7.083969465648855,31.777058823529412
-0.35546875,1.252197265625,0.14453125,3.5572519083969465,2.8702290076335877,-28.68702290076336,28.15352941176471
-0.3681640625,1.2734375,0.17041015625,-12.625954198473282,-1.633587786259542,23.33587786259542,29.000588235294117
-0.713134765625,1.18115234375,0.154541015625,3.549618320610687,0.21374045801526717,0.8549618320610687,31.588823529411766
-0.824951171875,1.2236328125,0.150634765625,5.847328244274809,0.8778625954198473,2.7099236641221376,33.09470588235294
-0.726318359375,1.28076171875,0.14404296875,3.236641221374046,0.3816793893129771,-4.015267175572519,33.09470588235294
-1.101806640625,1.25439453125,0.15185546875,-0.4732824427480916,0.6030534351145038,10.34351145038168,36.43588235294118
-0.992919921875,1.22021484375,0.14599609375,-3.2442748091603053,-1.2442748091603053,23.068702290076335,36.906470588235294
-1.12548828125,1.223388671875,0.146728515625,-0.7022900763358778,-1.1145038167938932,-15.786259541984732,36.29470588235294
-1.08154296875,1.0322265625,0.15576171875,-0.9007633587786259,1.4351145038167938,19.69465648854962,36.29470588235294
-1.29052734375,1.133544921875,0.147705078125,2.572519083969466,0.46564885496183206,0.4580152671755725,36.24764705882353
-1.376708984375,1.306640625,0.15380859375,-2.381679389312977,0.9236641221374046,2.381679389312977,36.71823529411765
-1.439697265625,1.089599609375,0.146484375,0.33587786259541985,0.22137404580152673,4.473282442748092,36.29470588235294
-1.47021484375,1.078857421875,0.15185546875,-1.5267175572519085,0.7557251908396947,4.450381679389313,37.09470588235294
-1.686767578125,1.38427734375,0.14306640625,1.816793893129771,1.1221374045801527,5.977099236641221,35.54176470588236
-1.631591796875,1.14306640625,0.154296875,-1.7938931297709924,0.16030534351145037,-1.4809160305343512,37.75352941176471
-1.611572265625,1.0224609375,0.152587890625,3.099236641221374,-1.1755725190839694,-0.03816793893129771,36.29470588235294
-1.650146484375,1.136474609375,0.149658203125,2.687022900763359,1.3740458015267176,4.068702290076335,34.64764705882353
-1.859130859375,1.337890625,0.144775390625,-1.0458015267175573,0.9923664122137404,-1.916030534351145,36.906470588235294
-1.718994140625,1.093017578125,0.142578125,-0.7251908396946565,0.8702290076335878,2.114503816793893,37.00058823529412
-1.67333984375,1.148681640625,0.151123046875,1.4427480916030535,-1.900763358778626,5.648854961832061,36.15352941176471
-1.8779296875,1.217529296875,0.15185546875,1.3282442748091603,0.45038167938931295,6.061068702290076,36.43588235294118
-1.758056640625,1.124755859375,0.151611328125,-2.5801526717557253,-0.3053435114503817,9.633587786259541,36.906470588235294
-1.73583984375,1.18603515625,0.1552734375,1.450381679389313,-1.4885496183206106,5.580152671755725,36.15352941176471
-1.749755859375,1.194091796875,0.156005859375,0.10687022900763359,0.6717557251908397,4.083969465648855,37.04764705882353
-1.764404296875,1.124755859375,0.15478515625,0.7251908396946565,-1.702290076335878,1.916030534351145,37.04764705882353
-1.663330078125,1.173095703125,0.145263671875,-1.9312977099236641,1.0458015267175573,7.893129770992366,37.04764705882353
-1.620849609375,1.059814453125,0.14794921875,-1.549618320610687,1.5114503816793894,3.9236641221374047,36.29470588235294
-1.7490234375,1.385498046875,0.14794921875,-1.4274809160305344,1.7709923664122138,10.083969465648854,37.04764705882353
-1.4931640625,1.048583984375,0.15478515625,0.6641221374045801,1.6412213740458015,-1.8473282442748091,36.15352941176471
-1.6123046875,1.03076171875,0.1494140625,-0.5572519083969466,-1.8931297709923665,11.717557251908397,36.906470588235294
-1.453369140625,1.26123046875,0.15087890625,0.26717557251908397,-1.6717557251908397,13.290076335877863,37.09470588235294
-1.394775390625,1.310302734375,0.141845703125,4.8320610687022905,0.9312977099236641,-9.770992366412214,36.24764705882353
-1.265869140625,0.97802734375,0.1640625,1.7786259541984732,1.786259541984733,4.404580152671755,35.02411764705882
-1.25390625,1.229248046875,0.146240234375,0.4351145038167939,-1.916030534351145,5.1603053435114505,36.24764705882353
-1.205810546875,1.295166015625,0.1474609375,-1.5114503816793894,-1.3587786259541985,7.763358778625954,35.96529411764706
-1.086181640625,1.18115234375,0.146728515625,0.8625954198473282,-1.900763358778626,-0.24427480916030533,36.24764705882353
-0.91943359375,1.098876953125,0.155517578125,-2.0763358778625953,0.8396946564885496,14.320610687022901,36.15352941176471
-0.9150390625,1.176513671875,0.15283203125,-0.916030534351145,-0.816793893129771,-10.427480916030534,36.012352941176474
-0.87890625,1.14501953125,0.142822265625,-1.7633587786259541,-1.7633587786259541,21.106870229007633,37.04764705882353
-0.644287109375,1.320068359375,0.140625,-0.12213740458015267,-1.1603053435114503,-11.893129770992367,36.341764705882355
-0.612060546875,1.017333984375,0.1494140625,-0.8702290076335878,-1.5267175572519085,1.7404580152671756,36.43588235294118
-0.497314453125,1.163818359375,0.15380859375,-1.2213740458015268,0.11450381679389313,10.045801526717558,36.43588235294118
-0.381591796875,1.30859375,0.147705078125,-1.450381679389313,-1.6641221374045803,3.7557251908396947,37.04764705882353
-0.329833984375,1.022705078125,0.145751953125,1.3129770992366412,0.015267175572519083,0.07633587786259542,36.341764705882355
-0.0517578125,1.299072265625,0.149658203125,-2.7251908396946565,-0.5725190839694656,11.702290076335878,36.341764705882355
-0.141357421875,1.078125,0.15185546875,1.7938931297709924,-1.0763358778625953,-4.480916030534351,35.49470588235294
0.165771484375,1.239013671875,0.144775390625,-1.9312977099236641,-0.4198473282442748,7.648854961832061,36.76529411764706
0.10009765625,1.218505859375,0.156005859375,-3.7022900763358777,1.8396946564885497,10.15267175572519,36.906470588235294
0.260986328125,1.166748046875,0.1513671875,0.015267175572519083,-1.8244274809160306,10.106870229007633,36.15352941176471
0.369140625,1.207275390625,0.14208984375,1.3206106870229009,0.1984732824427481,0.32061068702290074,36.906470588235294
0.480712890625,1.219970703125,0.14501953125,-0.007633587786259542,-1.9312977099236641,16.458015267175572,36.341764705882355
0.654052734375,1.33056640625,0.1455078125,-0.7633587786259542,0.7480916030534351,5.908396946564886,37.75352941176471
0.580810546875,1.12939453125,0.144287109375,1.4961832061068703,0.4961832061068702,0.6030534351145038,41.00058823529412
0.791015625,1.25634765625,0.145751953125,-0.7786259541984732,-1.0763358778625953,13.595419847328245,41.518235294117645
0.844970703125,1.298583984375,0.141357421875,-0.05343511450381679,-1.1145038167938932,-4.938931297709924,41.565294117647056
0.89111328125,1.17578125,0.149658203125,-2.801526717557252,-0.061068702290076333,6.137404580152672,43.02411764705882
1.04833984375,1.40283203125,0.150634765625,-1.1450381679389312,-0.5725190839694656,-4.9541984732824424,45.28294117647059
1.130859375,1.197265625,0.146728515625,-1.6412213740458015,-1.4809160305343512,0.7938931297709924,46.506470588235295
1.404541015625,1.09619140625,0.14892578125,-4.572519083969466,-3.3206106870229006,4.8320610687022905,44.624117647058824
1.2666015625,0.986572265625,0.14599609375,-6.923664122137405,-3.8091603053435112,2.9160305343511452,40.012352941176474
1.44384765625,1.012939453125,0.153564453125,-3.183206106870229,-0.6946564885496184,9.450381679389313,37.00058823529412
1.39013671875,1.12939453125,0.156005859375,-0.4580152671755725,-1.6717557251908397,5.694656488549619,36.341764705882355
1.544677734375,1.22607421875,0.141357421875,-1.1908396946564885,-1.6488549618320612,11.320610687022901,37.00058823529412
1.47802734375,1.29541015625,0.1552734375,-1.7099236641221374,0.25190839694656486,5.916030534351145,37.612352941176475
1.713134765625,1.064697265625,0.143310546875,1.099236641221374,0.6793893129770993,5.908396946564886,36.24764705882353
1.5390625,1.27685546875,0.140625,-2.633587786259542,1.900763358778626,14.412213740458014,35.91823529411765
1.689697265625,1.11279296875,0.15478515625,1.9083969465648856,-1.8396946564885497,-2.015267175572519,36.43588235294118
1.697021484375,1.269287109375,0.14697265625,-0.183206106870229,0.816793893129771,14.083969465648854,36.85941176470588
1.7197265625,1.136474609375,0.147705078125,1.549618320610687,1.6946564885496183,-5.290076335877862,36.29470588235294
1.714111328125,1.14013671875,0.14111328125,1.2213740458015268,0.183206106870229,12.221374045801527,36.24764705882353
1.69189453125,1.228271484375,0.144287109375,0.33587786259541985,0.1984732824427481,2.183206106870229,36.71823529411765
1.706787109375,1.218505859375,0.15283203125,1.534351145038168,0.19083969465648856,4.091603053435114,37.04764705882353
1.73291015625,1.170166015625,0.147705078125,0.9083969465648855,1.1908396946564885,-3.7709923664122136,36.29470588235294
1.698974609375,1.119873046875,0.1513671875,-1.3969465648854962,1.6717557251908397,8.183206106870228,36.57705882352941
1.717529296875,1.23388671875,0.147216796875,-0.07633587786259542,1.2748091603053435,0.1297709923664122,36.15352941176471
1.6435546875,1.2822265625,0.140625,-1.2671755725190839,1.2290076335877862,6.236641221374046,36.906470588235294
1.6337890625,1.142333984375,0.146240234375,0.3282442748091603,0.5038167938931297,2.2519083969465647,36.85941176470588
1.580078125,1.21337890625,0.14794921875,-0.7251908396946565,-0.5877862595419847,11.450381679389313,37.00058823529412
1.539306640625,1.18115234375,0.150634765625,1.4122137404580153,0.07633587786259542,-7.740458015267175,37.04764705882353
1.593505859375,1.280517578125,0.148681640625,-1.633587786259542,1.1908396946564885,9.908396946564885,36.85941176470588
1.468994140625,1.132568359375,0.146728515625,0.4961832061068702,0.7786259541984732,8.16793893129771,37.00058823529412
1.35400390625,1.183349609375,0.156005859375,-1.6488549618320612,0.816793893129771,0.061068702290076333,37.04764705882353
1.39794921875,1.1630859375,0.14306640625,-0.732824427480916,0.31297709923664124,-5.801526717557252,37.04764705882353
1.246826171875,1.21923828125,0.155029296875,-0.5572519083969466,1.2061068702290076,19.595419847328245,36.906470588235294
1.246826171875,1.298583984375,0.14111328125,-0.5877862595419847,0.29770992366412213,-7.519083969465649,37.00058823529412
1.107666015625,1.010498046875,0.1455078125,-3.66412213740458,1.5954198473282444,19.541984732824428,37.18882352941176
1.081298828125,1.272705078125,0.155029296875,-1.5954198473282444,-1.2900763358778626,-6.259541984732825,37.09470588235294
0.90234375,1.1494140625,0.141357421875,-1.2061068702290076,0.24427480916030533,14.221374045801527,37.04764705882353
0.93896484375,1.281494140625,0.15380859375,-2.618320610687023,1.6412213740458015,-9.267175572519085,36.15352941176471
0.68408203125,1.085693359375,0.15283203125,-6.534351145038168,1.3282442748091603,21.72519083969466,37.00058823529412
0.727783203125,1.224609375,0.14599609375,-6.938931297709924,-0.24427480916030533,-0.03816793893129771,36.012352941176474
0.588623046875,1.181884765625,0.153564453125,-0.9389312977099237,0.11450381679389313,8.427480916030534,36.29470588235294
0.544921875,1.20458984375,0.147705078125,-5.442748091603053,0.09923664122137404,4.061068702290076,35.54176470588236
0.306884765625,1.147705078125,0.14599609375,-6.259541984732825,1.9465648854961832,2.7022900763358777,35.49470588235294
0.29638671875,1.180908203125,0.148681640625,-0.07633587786259542,1.2595419847328244,0.22900763358778625,35.730000000000004
0.164306640625,1.10888671875,0.1552734375,0.3816793893129771,1.534351145038168,5.625954198473282,35.353529411764704
0.05224609375,1.111572265625,0.1435546875,1.8091603053435115,0.19083969465648856,7.549618320610687,33.98882352941177
-0.0341796875,1.039306640625,0.147705078125,9.526717557251908,2.8244274809160306,23.99236641221374,33.28294117647059
-0.28857421875,1.142822265625,0.142578125,20.99236641221374,2.198473282442748,9.702290076335878,35.730000000000004
-0.256103515625,1.05712890625,0.14453125,24.15267175572519,3.16793893129771,-4.374045801526718,34.64764705882353
-0.126953125,1.2412109375,0.144775390625,14.259541984732824,6.778625954198473,-11.603053435114504,26.36529411764706
-0.71533203125,1.326904296875,0.15087890625,-5.549618320610687,1.4045801526717556,-19.00763358778626,29.377058823529413
-0.711181640625,1.126708984375,0.143798828125,-10.587786259541986,1.9236641221374047,35.43511450381679,32.57705882352941
-0.685546875,1.35888671875,0.148681640625,4.122137404580153,1.3740458015267176,0.9312977099236641,32.57705882352941
-0.900390625,1.166259765625,0.152587890625,4.931297709923665,3.4656488549618323,2.145038167938931,33.28294117647059
-0.996337890625,1.271484375,0.151123046875,-0.5648854961832062,1.6412213740458015,0.11450381679389313,35.49470588235294
-1.055908203125,1.1337890625,0.1455078125,-1.8244274809160306,0.6259541984732825,6.213740458015267,36.24764705882353
-1.033447265625,1.223876953125,0.1552734375,-2.5572519083969465,-0.549618320610687,21.47328244274809,35.91823529411765
-1.268310546875,1.236083984375,0.144775390625,0.09923664122137404,0.10687022900763359,-15.526717557251908,37.04764705882353
-1.25439453125,1.184814453125,0.14697265625,-0.35877862595419846,0.06870229007633588,6.404580152671755,36.24764705882353
-1.297607421875,0.92236328125,0.15478515625,-0.022900763358778626,-0.21374045801526717,7.67175572519084,34.788823529411765
-1.564453125,1.30517578125,0.155517578125,-3.068702290076336,1.015267175572519,18.068702290076335,36.76529411764706
-1.361572265625,1.382568359375,0.144775390625,1.916030534351145,1.1297709923664123,-13.664122137404581,36.15352941176471
-1.532470703125,0.82421875,0.154296875,0.21374045801526717,0.015267175572519083,13.961832061068701,36.29470588235294
-1.652099609375,1.41748046875,0.146240234375,1.6030534351145038,-0.16030534351145037,3.8625954198473282,36.29470588235294
-1.650390625,1.178466796875,0.155517578125,-0.8396946564885496,1.9465648854961832,3.9236641221374047,37.04764705882353
-1.734619140625,1.210205078125,0.149169921875,2.5419847328244276,0.648854961832061,-3.5343511450381677,36.29470588235294
-1.6875,1.169189453125,0.15478515625,-1.0381679389312977,1.1145038167938932,0.022900763358778626,37.00058823529412
-1.722412109375,0.99853515625,0.143798828125,0.9007633587786259,-1.9465648854961832,5.8320610687022905,35.91823529411765
-1.828125,1.3291015625,0.150390625,-2.564885496183206,-1.213740458015267,7.770992366412214,37.09470588235294
-1.70849609375,1.0771484375,0.14892578125,0.4732824427480916,-0.15267175572519084,7.748091603053435,36.29470588235294
-1.847412109375,1.261962890625,0.14111328125,-0.5114503816793893,0.007633587786259542,-1.8854961832061068,37.00058823529412
-1.68017578125,0.96240234375,0.151611328125,0.3816793893129771,-1.1603053435114503,11.267175572519085,36.24764705882353
-1.84033203125,1.3046875,0.146240234375,-0.6946564885496184,-0.6335877862595419,5.770992366412214,37.00058823529412
-1.677001953125,1.11474609375,0.140869140625,0.8320610687022901,1.7557251908396947,0.3435114503816794,36.15352941176471
-1.716552734375,1.192138671875,0.14599609375,-1.748091603053435,1.2061068702290076,7.99236641221374,37.04764705882353
-1.73828125,1.124755859375,0.148193359375,-0.4351145038167939,-0.6946564885496184,7.66412213740458,36.24764705882353
-1.68212890625,1.180908203125,0.142578125,-1.1221374045801527,0.9770992366412213,6.122137404580153,36.906470588235294
-1.503662109375,1.210693359375,0.153076171875,0.9389312977099237,-1.2366412213740459,-4.0534351145038165,36.15352941176471
-1.517333984375,1.066650390625,0.144775390625,1.8625954198473282,0.46564885496183206,23.763358778625953,36.24764705882353
-1.52880859375,1.302490234375,0.148193359375,2.2900763358778624,0.6641221374045801,-11.717557251908397,36.15352941176471
-1.385498046875,1.12890625,0.14892578125,-1.8702290076335877,-1.0229007633587786,15.587786259541986,37.09470588235294
-1.442626953125,1.135498046875,0.1533203125,3.2442748091603053,1.0381679389312977,10.16030534351145,36.24764705882353
-1.33544921875,1.280029296875,0.15185546875,2.282442748091603,-1.8244274809160306,-0.022900763358778626,36.48294117647059
-1.080322265625,1.131103515625,0.146240234375,0.26717557251908397,0.015267175572519083,-3.6259541984732824,36.341764705882355
-1.146240234375,1.154296875,0.143798828125,-1.916030534351145,-0.6335877862595419,1.83206106870229,36.85941176470588
-1.030517578125,1.087158203125,0.151611328125,-0.5343511450381679,1.3206106870229009,-3.5801526717557253,36.29470588235294
-0.9375,1.09423828125,0.142822265625,-0.2366412213740458,-1.7709923664122138,19.458015267175572,36.012352941176474
-0.933837890625,1.2509765625,0.144775390625,-1.4732824427480915,-1.8015267175572518,-1.9770992366412214,36.15352941176471
-0.555908203125,1.2705078125,0.1533203125,-3.33587786259542,-1.9083969465648856,7.4961832061068705,36.341764705882355
-0.732666015625,1.08740234375,0.14208984375,-0.6946564885496184,1.9083969465648856,4.702290076335878,36.24764705882353
-0.44189453125,1.266357421875,0.1435546875,-0.16030534351145037,-0.5190839694656488,17.198473282442748,36.48294117647059
-0.52490234375,1.20849609375,0.153076171875,1.1526717557251909,1.099236641221374,-15.435114503816793,35.49470588235294
-0.29052734375,1.114013671875,0.1455078125,-0.0916030534351145,-0.31297709923664124,21.297709923664122,36.29470588235294
-0.24755859375,1.1806640625,0.1416015625,0.24427480916030533,-0.10687022900763359,-3.053435114503817,36.341764705882355
-0.103759765625,1.184814453125,0.145263671875,-1.748091603053435,1.465648854961832,0.5954198473282443,36.24764705882353
0.127685546875,1.203369140625,0.144287109375,0.5877862595419847,-1.282442748091603,19.259541984732824,35.21235294117647
-0.031982421875,1.223388671875,0.1533203125,-1.0,-1.8015267175572518,7.213740458015267,36.85941176470588
0.325439453125,1.18115234375,0.143310546875,-1.1068702290076335,-0.015267175572519083,-2.50381679389313,36.012352941176474
0.283203125,1.247802734375,0.147705078125,-1.6946564885496183,-1.7328244274809161,11.49618320610687,37.00058823529412
0.3779296875,1.162109375,0.146484375,-3.3969465648854964,-0.17557251908396945,-3.213740458015267,37.65941176470589
0.432373046875,1.19921875,0.145263671875,-0.9770992366412213,-0.5725190839694656,2.1374045801526718,38.60058823529412
0.74267578125,1.262451171875,0.151123046875,-1.6412213740458015,1.297709923664122,19.221374045801525,39.91823529411765
0.75537109375,1.28515625,0.15478515625,-1.213740458015267,-0.183206106870229,7.67175572519084,41.00058823529412
0.81689453125,1.25390625,0.140869140625,-0.2366412213740458,-1.8473282442748091,10.641221374045802,42.31823529411765
0.82373046875,1.197021484375,0.145263671875,-1.7786259541984732,-0.7480916030534351,-3.16793893129771,43.54176470588236
1.052001953125,1.38427734375,0.150634765625,-3.3893129770992365,-0.8778625954198473,4.603053435114504,45.28294117647059
1.124267578125,1.30810546875,0.14697265625,0.648854961832061,-1.1374045801526718,-7.022900763358779,46.27117647058824
1.16943359375,1.128173828125,0.15283203125,-6.450381679389313,-2.8396946564885495,-1.748091603053435,45.37705882352941
1.285400390625,0.957763671875,0.144287109375,-5.473282442748092,-3.8244274809160306,4.633587786259542,42.03588235294118
1.46484375,1.06201171875,0.14697265625,-3.8396946564885495,-1.7709923664122138,6.748091603053435,36.71823529411765
1.462646484375,1.104736328125,0.14599609375,-2.8244274809160306,-1.8931297709923665,13.641221374045802,36.29470588235294
1.461181640625,1.137939453125,0.15185546875,-0.366412213740458,-1.816793893129771,5.641221374045801,37.04764705882353
1.453369140625,1.20947265625,0.151123046875,-1.2748091603053435,-1.0305343511450382,17.129770992366414,37.04764705882353
1.69482421875,1.3095703125,0.150146484375,-0.5190839694656488,1.1297709923664123,-3.4885496183206106,36.24764705882353
1.5419921875,1.08837890625,0.143798828125,-3.2748091603053435,-0.007633587786259542,19.450381679389313,37.09470588235294
1.674072265625,1.21826171875,0.149169921875,-1.0,0.2900763358778626,2.5114503816793894,36.906470588235294
1.681396484375,1.179931640625,0.14501953125,-1.4580152671755726,1.7633587786259541,10.282442748091603,37.00058823529412
1.66064453125,1.185546875,0.144775390625,1.450381679389313,1.1755725190839694,0.46564885496183206,36.15352941176471
1.7099609375,1.1396484375,0.1455078125,1.3358778625954197,0.0916030534351145,11.954198473282442,37.09470588235294
1.69287109375,1.24462890625,0.142822265625,0.9847328244274809,0.9923664122137404,-3.9083969465648853,37.00058823529412
1.738037109375,1.211181640625,0.14404296875,0.2595419847328244,1.2442748091603053,0.21374045801526717,37.18882352941176
1.74658203125,1.161376953125,0.1435546875,1.3893129770992367,0.6030534351145038,8.274809160305344,35.96529411764706
1.712890625,1.183837890625,0.147216796875,-1.5725190839694656,1.7404580152671756,-3.4732824427480917,37.00058823529412
1.70068359375,1.17919921875,0.145263671875,-0.061068702290076333,0.9923664122137404,8.122137404580153,36.29470588235294
1.709228515625,1.219482421875,0.15087890625,1.4809160305343512,0.04580152671755725,4.152671755725191,36.29470588235294
1.617919921875,1.1376953125,0.14697265625,0.20610687022900764,0.5190839694656488,0.09923664122137404,36.906470588235294
1.61962890625,1.210205078125,0.144775390625,-0.48091603053435117,-0.549618320610687,9.320610687022901,37.04764705882353
1.535888671875,1.2646484375,0.146484375,-1.465648854961832,-0.4732824427480916,-0.4122137404580153,36.906470588235294
1.563232421875,1.186279296875,0.143798828125,0.9312977099236641,0.24427480916030533,4.236641221374046,36.29470588235294
1.43017578125,1.151611328125,0.1474609375,-0.3969465648854962,0.7786259541984732,8.198473282442748,37.00058823529412
1.334716796875,1.128173828125,0.156005859375,-0.6717557251908397,0.2748091603053435,4.206106870229007,37.04764705882353
1.466796875,1.35205078125,0.142822265625,-1.8396946564885497,0.648854961832061,0.24427480916030533,37.04764705882353
1.141357421875,1.08154296875,0.151123046875,-1.015267175572519,0.5725190839694656,19.68702290076336,37.00058823529412
1.24755859375,1.238525390625,0.151611328125,-1.2061068702290076,-0.5419847328244275,-7.961832061068702,37.09470588235294
1.086669921875,1.11474609375,0.141357421875,-3.564885496183206,1.7786259541984732,7.99236641221374,37.00058823529412
1.0537109375,1.242431640625,0.14111328125,-3.4427480916030535,1.534351145038168,6.00763358778626,37.09470588235294
0.9833984375,1.16357421875,0.15380859375,-2.6030534351145036,0.5801526717557252,-7.755725190839694,37.09470588235294
0.818359375,1.222900390625,0.140625,-4.648854961832061,0.7175572519083969,14.038167938931299,36.24764705882353
0.75,1.224365234375,0.1455078125,-8.82442748091603,1.1145038167938932,16.045801526717558,36.906470588235294
0.677734375,1.167724609375,0.156005859375,-3.595419847328244,-1.9465648854961832,1.702290076335878,37.09470588235294
0.612548828125,1.188232421875,0.14697265625,-1.7786259541984732,0.9389312977099237,-5.3816793893129775,36.29470588235294
0.37548828125,1.13232421875,0.143310546875,-3.3282442748091605,0.648854961832061,8.312977099236642,36.29470588235294
0.364013671875,1.080810546875,0.149169921875,-5.091603053435114,1.8244274809160306,9.893129770992367,37.04764705882353
0.268798828125,1.231689453125,0.150146484375,1.381679389312977,0.061068702290076333,2.4656488549618323,35.54176470588236
0.16455078125,1.186767578125,0.148681640625,1.0305343511450382,0.44274809160305345,1.3053435114503817,35.54176470588236
0.04296875,1.056396484375,0.150390625,1.2442748091603053,0.24427480916030533,14.885496183206106,34.788823529411765
-0.046875,1.1064453125,0.143798828125,6.488549618320611,3.5801526717557253,14.404580152671755,33.75352941176471
-0.173828125,1.0546875,0.14794921875,14.114503816793894,2.8702290076335877,15.396946564885496,33.235882352941175
-0.37939453125,1.13916015625,0.142333984375,24.236641221374047,5.717557251908397,2.564885496183206,34.03588235294118
-0.22021484375,1.207275390625,0.140625,23.16030534351145,6.458015267175573,-20.900763358778626,27.25941176470588
-0.741455078125,1.307373046875,0.147216796875,-0.6106870229007634,1.0076335877862594,-15.13740458015267,28.059411764705885
-0.628662109375,1.216796875,0.152587890625,-13.900763358778626,-1.015267175572519,31.480916030534353,30.271176470588237
-0.6787109375,1.31201171875,0.1533203125,6.236641221374046,0.4732824427480916,-2.1755725190839694,31.73
-0.90673828125,1.184326171875,0.1484375,10.580152671755725,3.0,-9.114503816793894,33.28294117647059
-1.004150390625,1.260498046875,0.14404296875,-0.4198473282442748,-1.900763358778626,16.84732824427481,35.49470588235294
-1.119384765625,1.2099609375,0.15380859375,-7.358778625954199,-0.29770992366412213,15.419847328244275,36.43588235294118
-1.090087890625,1.225830078125,0.155029296875,1.366412213740458,0.9007633587786259,6.183206106870229,36.24764705882353
-1.154052734375,1.200927734375,0.15380859375,-2.9160305343511452,-0.10687022900763359,-0.183206106870229,36.85941176470588
-1.3544921875,1.0859375,0.1435546875,-1.3206106870229009,-0.40458015267175573,21.458015267175572,36.1064705882353
-1.27880859375,1.26025390625,0.154296875,-1.1145038167938932,1.83206106870229,-15.076335877862595,36.15352941176471
-1.52880859375,1.157470703125,0.14111328125,-0.33587786259541985,1.5725190839694656,0.5572519083969466,37.00058823529412
-1.39013671875,1.131103515625,0.15380859375,-1.4274809160305344,1.4732824427480915,21.702290076335878,36.85941176470588
-1.656005859375,1.09716796875,0.146728515625,0.2900763358778626,0.8702290076335878,-1.5877862595419847,36.24764705882353
-1.5947265625,1.258544921875,0.15478515625,-1.4045801526717556,1.5419847328244274,-1.83206106870229,36.1064705882353
-1.607177734375,1.15576171875,0.150390625,2.2290076335877864,0.48854961832061067,10.259541984732824,36.43588235294118
-1.7490234375,1.2314453125,0.156005859375,-0.8854961832061069,0.48091603053435117,-7.755725190839694,37.04764705882353
-1.751708984375,1.001220703125,0.144287109375,0.37404580152671757,-0.8091603053435115,9.488549618320612,36.1064705882353
-1.714111328125,1.352294921875,0.151123046875,-0.9923664122137404,0.6335877862595419,4.305343511450381,36.71823529411765
-1.799560546875,1.080322265625,0.14892578125,-0.9923664122137404,-1.1221374045801527,1.5801526717557253,36.906470588235294
-1.703125,1.0703125,0.141845703125,0.9465648854961832,0.25190839694656486,2.1603053435114505,36.29470588235294
-1.826416015625,1.254150390625,0.1474609375,-2.900763358778626,1.7099236641221374,7.916030534351145,37.235882352941175
-1.73193359375,1.116455078125,0.155029296875,-1.7633587786259541,-1.1145038167938932,5.564885496183206,37.04764705882353
-1.803955078125,1.18212890625,0.148193359375,-1.16793893129771,-0.8320610687022901,7.656488549618321,37.04764705882353
-1.72021484375,1.173095703125,0.15234375,1.1908396946564885,-0.6641221374045801,9.740458015267176,36.24764705882353
-1.700439453125,1.1123046875,0.15185546875,-1.633587786259542,-0.4122137404580153,-2.236641221374046,37.04764705882353
-1.669189453125,1.2353515625,0.14404296875,-1.3358778625954197,0.9541984732824428,8.106870229007633,37.04764705882353
-1.59912109375,1.2041015625,0.1552734375,0.15267175572519084,0.9618320610687023,10.114503816793894,36.906470588235294
-1.58935546875,1.105224609375,0.142578125,1.3511450381679388,1.7251908396946565,5.9465648854961835,36.24764705882353
-1.599609375,1.135009765625,0.146484375,-0.15267175572519084,-1.4427480916030535,5.656488549618321,36.341764705882355
-1.5009765625,1.241455078125,0.14208984375,3.3206106870229006,0.007633587786259542,5.900763358778626,36.24764705882353
-1.3525390625,1.121337890625,0.14501953125,0.6335877862595419,-0.6641221374045801,5.099236641221374,35.400588235294116
-1.447265625,1.169677734375,0.142333984375,4.175572519083969,0.13740458015267176,-3.572519083969466,36.24764705882353
-1.1484375,1.19580078125,0.150390625,0.2595419847328244,-1.4427480916030535,5.702290076335878,37.04764705882353
-1.2578125,1.08984375,0.14111328125,-0.8473282442748091,-0.2900763358778626,3.6412213740458017,36.43588235294118
-1.043701171875,1.240234375,0.14892578125,-0.44274809160305345,0.7633587786259542,14.19083969465649,36.29470588235294
-1.067626953125,1.179931640625,0.14501953125,3.450381679389313,0.7633587786259542,-5.572519083969466,36.24764705882353
-1.04052734375,1.107421875,0.14990234375,-3.717557251908397,-1.5114503816793894,5.564885496183206,36.85941176470588
-0.653076171875,1.3427734375,0.151611328125,-0.6183206106870229,-1.5648854961832062,5.793893129770993,35.400588235294116
-0.880615234375,1.130615234375,0.14990234375,-4.801526717557252,1.0610687022900764,15.969465648854962,36.76529411764706
-0.571533203125,1.214111328125,0.1435546875,1.5801526717557253,-0.6183206106870229,-3.946564885496183,36.1064705882353
-0.580810546875,1.138671875,0.14697265625,-0.25190839694656486,-0.42748091603053434,-4.038167938931298,35.54176470588236
-0.30810546875,1.172119140625,0.15478515625,-0.7862595419847328,-1.4732824427480915,13.534351145038167,36.24764705882353
-0.4765625,1.0703125,0.147705078125,0.35877862595419846,-0.8091603053435115,3.3969465648854964,36.15352941176471
-0.0673828125,1.37744140625,0.1494140625,-0.42748091603053434,-1.1297709923664123,-6.114503816793893,36.1064705882353
-0.094482421875,1.00830078125,0.155517578125,0.9083969465648855,1.0763358778625953,12.557251908396946,35.400588235294116
-0.005615234375,1.273193359375,0.147705078125,-1.16793893129771,1.3511450381679388,13.694656488549619,37.04764705882353
0.125,1.17578125,0.1474609375,0.04580152671755725,-1.3587786259541985,-10.038167938931299,37.09470588235294
0.1591796875,1.156005859375,0.153076171875,-0.6259541984732825,-1.6946564885496183,28.786259541984734,36.24764705882353
0.38134765625,1.22265625,0.156005859375,1.0763358778625953,-1.1374045801526718,-18.198473282442748,37.65941176470589
0.36572265625,1.11669921875,0.1484375,-0.3893129770992366,-1.3587786259541985,20.091603053435115,37.04764705882353
0.61181640625,1.334228515625,0.14111328125,-0.20610687022900764,-1.3435114503816794,5.702290076335878,37.80058823529412
0.68994140625,1.2529296875,0.151611328125,1.4885496183206106,0.2366412213740458,12.98473282442748,39.730000000000004
0.66943359375,1.1943359375,0.14404296875,-1.1297709923664123,-0.2595419847328244,1.282442748091603,40.671176470588236
0.8564453125,1.29150390625,0.143310546875,-3.3893129770992365,-1.5114503816793894,16.900763358778626,42.36529411764706
0.87548828125,1.21728515625,0.151123046875,-0.061068702290076333,-0.0916030534351145,-3.5419847328244276,43.071176470588235
1.025146484375,1.39990234375,0.15576171875,-3.572519083969466,-0.3282442748091603,-5.687022900763359,44.57705882352941
1.08203125,1.216064453125,0.150390625,-0.03816793893129771,-1.7938931297709924,-5.557251908396947,46.03588235294118
1.234375,1.069580078125,0.1416015625,-4.877862595419847,-2.4122137404580153,16.519083969465647,45.37705882352941
1.368408203125,1.110595703125,0.1474609375,-3.3282442748091605,-2.2519083969465647,-10.259541984732824,40.76529411764706
1.4541015625,0.93603515625,0.147216796875,-4.0,-0.4122137404580153,15.572519083969466,36.29470588235294
1.406005859375,1.229736328125,0.151611328125,-3.633587786259542,0.8625954198473282,-3.4122137404580153,36.85941176470588
1.462646484375,1.1103515625,0.14501953125,-1.0687022900763359,-1.3893129770992367,23.35114503816794,36.85941176470588
1.578857421875,1.30322265625,0.148681640625,-1.5954198473282444,-0.8473282442748091,-0.1984732824427481,37.04764705882353
1.5185546875,1.1357421875,0.14599609375,-1.1068702290076335,1.618320610687023,13.954198473282442,36.906470588235294
1.671630859375,1.206787109375,0.145263671875,-0.6641221374045801,1.702290076335878,10.061068702290076,37.235882352941175
1.644287109375,1.148681640625,0.1494140625,-0.31297709923664124,1.7709923664122138,2.381679389312977,36.29470588235294
1.61865234375,1.159912109375,0.155517578125,-1.1450381679389312,1.3206106870229009,4.358778625954199,36.85941176470588
1.735595703125,1.167236328125,0.1513671875,1.6106870229007633,0.6259541984732825,4.480916030534351,36.15352941176471
1.684814453125,1.16064453125,0.15234375,0.6259541984732825,0.9389312977099237,15.961832061068701,37.04764705882353
1.776123046875,1.2021484375,0.14208984375,0.6335877862595419,-0.9312977099236641,-4.0,36.15352941176471
1.67333984375,1.21435546875,0.144775390625,1.3969465648854962,-1.6030534351145038,7.687022900763359,37.18882352941176
1.7431640625,1.20263671875,0.154296875,1.2290076335877862,0.9312977099236641,0.25190839694656486,36.29470588235294
1.6943359375,1.23974609375,0.14599609375,-1.2595419847328244,1.0305343511450382,4.511450381679389,37.00058823529412
1.710693359375,1.097900390625,0.155029296875,1.4351145038167938,0.5725190839694656,2.2977099236641223,36.29470588235294
1.6796875,1.1875,0.149658203125,-1.3511450381679388,1.3053435114503817,6.312977099236641,37.09470588235294
1.658203125,1.229736328125,0.146484375,1.8778625954198473,0.07633587786259542,2.2442748091603053,36.24764705882353
1.6240234375,1.1708984375,0.143310546875,-0.9770992366412213,-0.42748091603053434,-2.0229007633587788,36.15352941176471
1.507568359375,1.206298828125,0.141357421875,-0.8091603053435115,-0.45038167938931295,7.572519083969466,37.04764705882353
1.65478515625,1.212890625,0.14453125,-1.4122137404580153,1.3587786259541985,2.1374045801526718,37.00058823529412
1.46630859375,1.24951171875,0.140869140625,-0.5267175572519084,-0.7938931297709924,9.763358778625955,36.29470588235294
1.49609375,1.22607421875,0.155517578125,-0.7862595419847328,0.6946564885496184,-3.5343511450381677,37.09470588235294
1.234619140625,1.142578125,0.140869140625,-0.9007633587786259,0.32061068702290074,11.854961832061068,37.00058823529412
1.369140625,1.193603515625,0.140625,-1.748091603053435,-1.083969465648855,9.511450381679388,37.04764705882353
1.1982421875,1.21533203125,0.14404296875,-1.6793893129770991,-1.6946564885496183,5.732824427480916,36.906470588235294
1.125244140625,1.181640625,0.147705078125,-2.0,0.732824427480916,4.206106870229007,36.85941176470588
1.123779296875,1.176513671875,0.153076171875,-3.2213740458015265,1.0763358778625953,-3.3893129770992365,37.09470588235294
0.9091796875,1.1611328125,0.144775390625,-2.9618320610687023,-1.633587786259542,21.061068702290076,37.04764705882353
0.91650390625,1.2119140625,0.144287109375,-4.694656488549619,1.2290076335877862,-6.641221374045801,36.29470588235294
0.669189453125,1.203857421875,0.140625,-5.229007633587786,-1.2290076335877862,-0.3282442748091603,37.04764705882353
0.642333984375,1.240966796875,0.1494140625,-4.7251908396946565,0.7480916030534351,23.916030534351144,37.47117647058823
0.640869140625,1.18505859375,0.143310546875,-4.427480916030534,1.1068702290076335,-7.206106870229007,35.353529411764704
0.383056640625,1.1337890625,0.14306640625,-3.4732824427480917,1.5419847328244274,8.16793893129771,36.29470588235294
0.38232421875,1.1630859375,0.152587890625,-3.732824427480916,1.8931297709923665,12.305343511450381,36.24764705882353
0.240234375,1.180419921875,0.140625,-0.7786259541984732,1.2061068702290076,4.33587786259542,35.54176470588236
0.19287109375,1.18359375,0.141357421875,3.427480916030534,1.2442748091603053,3.572519083969466,34.788823529411765
0.024169921875,1.07568359375,0.1494140625,0.1984732824427481,1.748091603053435,13.549618320610687,34.788823529411765
-0.072021484375,1.049560546875,0.1533203125,6.595419847328245,0.21374045801526717,21.366412213740457,34.08294117647059
-0.303466796875,1.0693359375,0.143798828125,15.83969465648855,3.0381679389312977,-0.7251908396946565,34.74176470588235
-0.17822265625,1.1376953125,0.145263671875,25.85496183206107,4.66412213740458,-1.8091603053435115,34.03588235294118
-0.290283203125,1.10693359375,0.15478515625,17.625954198473284,6.175572519083969,-14.511450381679388,27.25941176470588
-0.830078125,1.359375,0.141357421875,-2.8091603053435112,-1.0687022900763359,-0.25190839694656486,30.31823529411765
-0.544677734375,1.251220703125,0.145263671875,-17.267175572519083,-1.183206106870229,14.534351145038167,30.08294117647059
-0.783447265625,1.248291015625,0.144775390625,13.351145038167939,3.6793893129770994,8.351145038167939,31.16529411764706
-0.9814453125,1.1826171875,0.148681640625,6.641221374045801,2.9618320610687023,-3.3893129770992365,33.14176470588235
-0.88818359375,1.4052734375,0.14111328125,-2.5114503816793894,-0.7786259541984732,25.16030534351145,35.54176470588236
-1.16259765625,1.222900390625,0.14990234375,-3.4122137404580153,0.7480916030534351,-7.541984732824427,37.09470588235294
-1.07568359375,1.130615234375,0.15234375,-1.1603053435114503,-1.0916030534351144,11.625954198473282,36.29470588235294
-1.10986328125,1.25341796875,0.1455078125,-0.8549618320610687,-0.007633587786259542,5.244274809160306,36.24764705882353
-1.453857421875,1.168701171875,0.153564453125,-0.183206106870229,1.1450381679389312,8.603053435114504,37.00058823529412
-1.15234375,1.112548828125,0.151611328125,1.717557251908397,-1.3282442748091603,-11.740458015267176,35.400588235294116
-1.5546875,1.0302734375,0.15283203125,-1.2671755725190839,-1.8702290076335877,23.16030534351145,36.29470588235294
-1.578857421875,1.27001953125,0.143798828125,-0.13740458015267176,1.6564885496183206,5.0,37.00058823529412
-1.5673828125,1.2900390625,0.142333984375,-0.030534351145038167,1.3053435114503817,8.045801526717558,36.29470588235294
-1.5693359375,1.12841796875,0.142578125,2.2595419847328246,1.6717557251908397,-17.46564885496183,35.54176470588236
-1.71826171875,1.183837890625,0.15380859375,-2.6030534351145036,-1.5877862595419847,15.572519083969466,37.65941176470589
-1.617431640625,1.017578125,0.152099609375,2.0916030534351147,0.5114503816793893,-5.824427480916031,36.341764705882355
-1.816162109375,1.306884765625,0.1494140625,-0.7404580152671756,0.5877862595419847,2.0229007633587788,37.00058823529412
-1.661376953125,1.0224609375,0.142578125,-1.099236641221374,-1.2671755725190839,5.763358778625954,36.1064705882353
-1.830322265625,1.22900390625,0.171630859375,-0.13740458015267176,0.6335877862595419,-1.8931297709923665,36.53
-1.72119140625,1.172119140625,0.141845703125,1.213740458015267,0.3282442748091603,5.885496183206107,36.29470588235294
-1.74609375,1.177734375,0.14990234375,-0.648854961832061,1.4045801526717556,11.900763358778626,36.341764705882355
-1.813720703125,1.166748046875,0.140625,0.648854961832061,-1.4809160305343512,1.8091603053435115,37.04764705882353
-1.727783203125,1.175048828125,0.148193359375,-1.0687022900763359,-0.5038167938931297,3.4732824427480917,36.906470588235294
-1.735107421875,1.155517578125,0.145751953125,0.7786259541984732,0.42748091603053434,11.755725190839694,36.24764705882353
-1.687744140625,1.2021484375,0.150146484375,0.09923664122137404,-1.549618320610687,-6.022900763358779,36.906470588235294
-1.6787109375,1.16455078125,0.1513671875,-0.5572519083969466,-1.2671755725190839,9.709923664122137,37.04764705882353
-1.66357421875,1.125244140625,0.141845703125,0.9007633587786259,1.3740458015267176,10.335877862595419,35.91823529411765
-1.5771484375,1.168212890625,0.1494140625,-0.8854961832061069,1.9312977099236641,2.50381679389313,37.18882352941176
-1.535888671875,1.06396484375,0.1552734375,-1.786259541984733,-0.42748091603053434,3.633587786259542,36.906470588235294
-1.447998046875,1.316650390625,0.14453125,1.8625954198473282,1.7709923664122138,11.877862595419847,35.25941176470588
-1.507568359375,0.93408203125,0.14453125,0.25190839694656486,-1.9083969465648856,1.3282442748091603,37.09470588235294
-1.3330078125,1.37841796875,0.145263671875,4.717557251908397,-1.916030534351145,11.534351145038167,36.29470588235294
-1.12353515625,1.263916015625,0.155029296875,3.8244274809160306,0.13740458015267176,-17.053435114503817,35.58882352941177
-1.252197265625,0.848876953125,0.14111328125,-2.6259541984732824,-0.44274809160305345,29.0,35.49470588235294
-1.122314453125,1.424560546875,0.14404296875,0.7786259541984732,0.8091603053435115,-7.7251908396946565,36.29470588235294
-1.049072265625,1.117919921875,0.1474609375,-3.5801526717557253,0.8015267175572519,6.305343511450381,36.906470588235294
-0.9140625,1.21923828125,0.149658203125,-1.717557251908397,1.83206106870229,6.282442748091603,36.1064705882353
-0.723388671875,1.26611328125,0.1455078125,-5.717557251908397,-1.8854961832061068,1.5114503816793894,37.09470588235294
-0.790283203125,1.02392578125,0.153564453125,0.06870229007633588,1.1374045801526718,2.1297709923664123,36.15352941176471
-0.618896484375,1.2080078125,0.142822265625,0.09923664122137404,-1.7328244274809161,1.6488549618320612,36.906470588235294
-0.428955078125,1.125,0.1513671875,0.030534351145038167,-0.9312977099236641,9.725190839694656,35.400588235294116
-0.4423828125,1.35546875,0.150390625,-1.2748091603053435,1.0610687022900764,6.221374045801527,36.76529411764706
-0.366943359375,1.12109375,0.14453125,-0.15267175572519084,-1.0,1.4122137404580153,36.29470588235294
0.01318359375,1.23974609375,0.142333984375,-1.3053435114503817,-1.0076335877862594,5.740458015267175,35.49470588235294
-0.22412109375,1.125244140625,0.152587890625,-1.9465648854961832,0.648854961832061,2.7022900763358777,37.09470588235294
0.03271484375,1.148193359375,0.149169921875,-0.08396946564885496,-0.7633587786259542,6.320610687022901,36.29470588235294
0.2021484375,1.244384765625,0.14306640625,-1.465648854961832,-1.3358778625954197,-4.198473282442748,36.43588235294118
0.177490234375,1.080322265625,0.14990234375,-0.6793893129770993,1.015267175572519,22.03053435114504,36.15352941176471
0.358154296875,1.239013671875,0.14404296875,0.9847328244274809,-0.2595419847328244,-0.3053435114503817,37.00058823529412
0.465087890625,1.27294921875,0.14453125,-0.7938931297709924,-1.5190839694656488,10.694656488549619,36.341764705882355
0.496826171875,1.20458984375,0.15380859375,-3.0610687022900764,-0.9541984732824428,-5.702290076335878,37.65941176470589
0.65966796875,1.205322265625,0.142578125,1.0305343511450382,1.4198473282442747,22.9618320610687,40.81235294117647
0.7822265625,1.25634765625,0.143310546875,-1.5725190839694656,-1.297709923664122,5.847328244274809,40.76529411764706
0.7861328125,1.2529296875,0.154052734375,-2.099236641221374,-0.29770992366412213,3.4122137404580153,41.518235294117645
1.012939453125,1.28271484375,0.143798828125,-0.5343511450381679,-1.0458015267175573,2.7786259541984735,42.88294117647059
0.961181640625,1.31298828125,0.152099609375,-3.6412213740458017,-0.2748091603053435,-3.572519083969466,45.33
1.077392578125,1.1962890625,0.152099609375,1.618320610687023,-1.16793893129771,-3.6946564885496183,46.69470588235294
1.348388671875,1.1943359375,0.154052734375,-5.511450381679389,-5.564885496183206,-2.717557251908397,46.08294117647059
1.22607421875,1.058349609375,0.154052734375,-3.8625954198473282,-2.4580152671755724,1.4198473282442747,42.93
1.5771484375,0.91015625,0.14697265625,-5.916030534351145,-0.183206106870229,15.274809160305344,36.43588235294118
1.348388671875,1.054931640625,0.14599609375,-5.022900763358779,1.4809160305343512,11.946564885496183,35.58882352941177
1.5615234375,1.310302734375,0.152099609375,-2.786259541984733,0.9923664122137404,-3.8625954198473282,36.906470588235294
1.588134765625,1.2177734375,0.14404296875,-0.8702290076335878,1.8244274809160306,21.603053435114504,36.15352941176471
1.551513671875,1.234619140625,0.141845703125,-0.9083969465648855,-1.297709923664122,5.33587786259542,36.012352941176474
1.502197265625,1.020751953125,0.147216796875,-0.1984732824427481,-0.3053435114503817,5.694656488549619,36.43588235294118
1.73388671875,1.23828125,0.14111328125,1.297709923664122,1.0229007633587786,10.65648854961832,36.341764705882355
1.6953125,1.2373046875,0.14453125,1.4122137404580153,0.7862595419847328,-3.8244274809160306,36.29470588235294
1.71826171875,1.096435546875,0.147216796875,-0.1984732824427481,1.213740458015267,12.419847328244275,36.341764705882355
1.684326171875,1.21875,0.14794921875,0.9083969465648855,0.9389312977099237,4.091603053435114,37.00058823529412
1.735595703125,1.252685546875,0.149169921875,0.3893129770992366,0.7251908396946565,2.1526717557251906,37.00058823529412
1.715576171875,1.143798828125,0.1455078125,0.015267175572519083,-1.6106870229007633,9.709923664122137,37.09470588235294
1.7109375,1.153076171875,0.151123046875,-1.0687022900763359,1.6641221374045803,-5.679389312977099,37.04764705882353
1.754150390625,1.18798828125,0.149658203125,-1.717557251908397,1.5877862595419847,6.259541984732825,36.906470588235294
1.6943359375,1.19482421875,0.1513671875,1.16793893129771,0.8625954198473282,0.3893129770992366,36.29470588235294
1.698486328125,1.251220703125,0.146484375,-1.1984732824427482,1.5648854961832062,2.648854961832061,36.76529411764706
1.623291015625,1.1328125,0.152587890625,-0.9618320610687023,-0.26717557251908397,11.48091603053435,37.18882352941176
1.6064453125,1.186279296875,0.15478515625,-0.3511450381679389,-0.04580152671755725,7.519083969465649,36.29470588235294
1.582275390625,1.24072265625,0.145263671875,-0.8702290076335878,-0.17557251908396945,-7.923664122137405,36.29470588235294
1.542724609375,1.18017578125,0.143798828125,-0.05343511450381679,0.9389312977099237,2.045801526717557,37.04764705882353
1.427734375,1.193359375,0.15185546875,-1.6717557251908397,0.48091603053435117,4.122137404580153,37.65941176470589
1.50390625,1.245849609375,0.14404296875,-1.0381679389312977,0.007633587786259542,4.1679389312977095,36.29470588235294
1.240234375,1.118896484375,0.14794921875,-0.11450381679389313,0.15267175572519084,11.893129770992367,37.04764705882353
1.381591796875,1.229736328125,0.14208984375,-0.8320610687022901,1.3587786259541985,10.641221374045802,37.09470588235294
1.243896484375,1.22705078125,0.14892578125,-3.633587786259542,-0.015267175572519083,11.381679389312977,37.00058823529412
1.1123046875,1.15234375,0.146484375,-0.37404580152671757,0.183206106870229,2.015267175572519,36.29470588235294
1.054443359375,1.13037109375,0.142333984375,-1.816793893129771,-1.16793893129771,3.7251908396946565,36.85941176470588
0.94287109375,1.316162109375,0.145263671875,-2.49618320610687,0.37404580152671757,6.221374045801527,36.906470588235294
0.99267578125,1.158935546875,0.1552734375,-2.3969465648854964,0.40458015267175573,-9.465648854961833,36.29470588235294
0.70703125,1.190673828125,0.152099609375,-5.748091603053435,0.9541984732824428,18.259541984732824,36.906470588235294
0.766357421875,1.136474609375,0.151611328125,-6.786259541984733,0.7480916030534351,10.022900763358779,35.49470588235294
0.51025390625,1.1552734375,0.15087890625,-4.99236641221374,1.0,-7.1679389312977095,36.29470588235294
0.520263671875,1.237060546875,0.15478515625,-0.8320610687022901,0.4351145038167939,18.862595419847327,36.24764705882353
0.404296875,1.193115234375,0.14306640625,-4.709923664122138,1.786259541984733,8.419847328244275,35.49470588235294
0.2626953125,1.130615234375,0.143798828125,-0.5114503816793893,-1.7328244274809161,7.633587786259542,36.341764705882355
0.236572265625,1.1796875,0.144775390625,0.7557251908396947,1.8015267175572518,0.8854961832061069,35.54176470588236
0.079833984375,1.12158203125,0.14599609375,5.717557251908397,3.427480916030534,13.80916030534351,33.84764705882353
0.002197265625,1.0947265625,0.156005859375,7.015267175572519,2.8091603053435112,8.916030534351146,34.03588235294118
-0.306396484375,1.024169921875,0.151123046875,18.717557251908396,2.984732824427481,6.221374045801527,34.788823529411765
-0.157470703125,1.111328125,0.140869140625,26.03053435114504,4.816793893129771,2.3282442748091605,33.98882352941177
-0.1533203125,1.164794921875,0.155029296875,16.076335877862597,6.297709923664122,-7.129770992366412,27.118235294117646
-0.809326171875,1.24267578125,0.145751953125,-2.015267175572519,-1.1526717557251909,-10.068702290076336,28.624117647058824
-0.622314453125,1.224365234375,0.14599609375,-14.870229007633588,-0.5419847328244275,14.511450381679388,30.97705882352941
-0.718505859375,1.2685546875,0.143310546875,8.129770992366412,3.6717557251908395,9.877862595419847,33.28294117647059
-0.74462890625,1.251953125,0.1455078125,5.938931297709924,2.0229007633587788,-1.9389312977099236,32.57705882352941
-1.001220703125,1.3349609375,0.155029296875,-1.297709923664122,1.3129770992366412,2.1908396946564888,35.54176470588236
-1.046142578125,1.194091796875,0.149169921875,-3.7786259541984735,0.6106870229007634,9.900763358778626,37.84764705882353
-1.121826171875,1.1767578125,0.14208984375,-3.900763358778626,1.7938931297709924,9.961832061068701,36.012352941176474
-1.218994140625,1.189208984375,0.154052734375,1.4961832061068703,-1.6946564885496183,-0.5190839694656488,35.49470588235294
-1.154052734375,1.085205078125,0.142822265625,-0.07633587786259542,0.6183206106870229,0.12213740458015267,36.29470588235294
-1.35205078125,1.15185546875,0.140625,-0.04580152671755725,1.916030534351145,-11.633587786259541,36.012352941176474
-1.34375,1.11865234375,0.1474609375,3.7938931297709924,0.7633587786259542,5.893129770992366,35.54176470588236
-1.50244140625,1.4453125,0.147216796875,-3.687022900763359,0.31297709923664124,-1.6870229007633588,36.906470588235294
-1.6728515625,1.10595703125,0.151611328125,1.3893129770992367,1.1374045801526718,8.106870229007633,36.341764705882355
-1.557861328125,1.0908203125,0.149169921875,0.6946564885496184,1.183206106870229,2.6259541984732824,35.91823529411765
-1.751708984375,1.242431640625,0.14208984375,2.015267175572519,-0.732824427480916,-0.09923664122137404,36.43588235294118
-1.6650390625,1.163330078125,0.147705078125,1.5038167938931297,0.022900763358778626,5.885496183206107,36.85941176470588
-1.723388671875,1.071044921875,0.142822265625,0.5038167938931297,-1.0534351145038168,1.6259541984732824,36.15352941176471
-1.77001953125,1.321044921875,0.15185546875,-1.5954198473282444,1.3129770992366412,0.16793893129770993,36.15352941176471
-1.7431640625,1.140380859375,0.1494140625,-2.267175572519084,-0.5114503816793893,5.656488549618321,36.85941176470588
-1.7890625,1.173583984375,0.150146484375,0.48091603053435117,-1.7786259541984732,3.8091603053435112,37.04764705882353
-1.746826171875,1.19189453125,0.14697265625,0.8702290076335878,0.366412213740458,12.0,36.29470588235294
-1.80810546875,1.11572265625,0.15478515625,-1.748091603053435,-0.5648854961832062,5.763358778625954,37.235882352941175
-1.759521484375,1.138916015625,0.150390625,0.7786259541984732,0.022900763358778626,7.885496183206107,36.671176470588236
-1.7490234375,1.177001953125,0.155517578125,1.9236641221374047,0.6030534351145038,0.0916030534351145,36.29470588235294
-1.68994140625,1.08935546875,0.145751953125,1.2900763358778626,-1.2366412213740459,5.595419847328245,36.15352941176471
-1.6474609375,1.213134765625,0.153076171875,-1.4580152671755726,1.9236641221374047,-3.83206106870229,36.76529411764706
-1.63916015625,1.085693359375,0.1416015625,-0.6183206106870229,1.5801526717557253,21.64885496183206,36.012352941176474
-1.56494140625,1.30126953125,0.15185546875,0.7633587786259542,-1.8702290076335877,-0.022900763358778626,36.43588235294118
-1.51904296875,1.1796875,0.142333984375,1.1603053435114503,-0.4122137404580153,11.664122137404581,36.24764705882353
-1.52099609375,1.151611328125,0.150390625,1.450381679389313,1.7709923664122138,3.9770992366412212,36.29470588235294
-1.330810546875,1.2060546875,0.1533203125,1.9923664122137406,1.702290076335878,-11.679389312977099,36.15352941176471
-1.35400390625,0.947021484375,0.144775390625,-1.4580152671755726,-0.8015267175572519,13.641221374045802,37.00058823529412
-1.303955078125,1.379638671875,0.16845703125,3.8396946564885495,-0.44274809160305345,7.374045801526718,35.02411764705882
-1.099853515625,1.113037109375,0.150146484375,1.3893129770992367,0.8931297709923665,-7.541984732824427,36.29470588235294
-1.151611328125,0.968017578125,0.154541015625,-1.0458015267175573,0.4961832061068702,4.282442748091603,36.29470588235294
-0.889404296875,1.345458984375,0.14111328125,-3.6793893129770994,1.8244274809160306,-7.66412213740458,36.76529411764706
-0.970703125,1.003173828125,0.14794921875,-2.198473282442748,0.5114503816793893,13.969465648854962,36.29470588235294
-0.836181640625,1.274658203125,0.1455078125,-0.8396946564885496,0.22137404580152673,8.13740458015267,36.341764705882355
-0.642822265625,1.175537109375,0.145263671875,-3.564885496183206,1.0610687022900764,2.145038167938931,36.85941176470588
-0.648681640625,1.296875,0.155029296875,1.4045801526717556,0.030534351145038167,21.52671755725191,36.29470588235294
-0.45751953125,1.24658203125,0.149169921875,-1.786259541984733,1.8091603053435115,-21.34351145038168,36.341764705882355
-0.44140625,1.041015625,0.145751953125,-1.2061068702290076,-0.916030534351145,7.564885496183206,36.341764705882355
-0.307861328125,1.23681640625,0.150390625,-0.3969465648854962,1.7328244274809161,-9.687022900763358,36.341764705882355
-0.094482421875,1.07861328125,0.156005859375,-1.1984732824427482,-1.4961832061068703,17.099236641221374,36.24764705882353
-0.121826171875,1.257080078125,0.14306640625,0.9770992366412213,-1.8473282442748091,3.1755725190839694,36.29470588235294
0.0283203125,1.1640625,0.142578125,-0.25190839694656486,-1.4351145038167938,16.946564885496183,36.012352941176474
0.1708984375,1.29931640625,0.142578125,-1.0534351145038168,-0.25190839694656486,-2.572519083969466,36.906470588235294
0.297119140625,1.2021484375,0.153076171875,-1.6564885496183206,-1.916030534351145,15.549618320610687,36.48294117647059
0.326416015625,1.134765625,0.15087890625,0.4198473282442748,-1.7099236641221374,5.458015267175573,36.43588235294118
0.483642578125,1.28125,0.156005859375,-3.7022900763358777,-1.251908396946565,2.2442748091603053,36.24764705882353
0.447265625,1.11669921875,0.151123046875,0.07633587786259542,-1.5114503816793894,-4.877862595419847,39.30647058823529
0.775390625,1.358154296875,0.14306640625,-0.6793893129770993,0.22900763358778625,22.50381679389313,39.91823529411765
0.644775390625,1.2138671875,0.142333984375,-0.6106870229007634,1.099236641221374,8.145038167938932,42.177058823529414
0.883056640625,1.258056640625,0.141357421875,-0.549618320610687,-2.5572519083969465,-2.0763358778625953,43.82411764705883
0.96728515625,1.283447265625,0.140869140625,-1.9618320610687023,-1.4580152671755726,7.221374045801527,42.93
0.99169921875,1.267822265625,0.1474609375,-1.0229007633587786,-2.946564885496183,-4.450381679389313,46.13
1.142822265625,1.226318359375,0.150634765625,-3.763358778625954,-2.0,1.465648854961832,46.69470588235294
1.408447265625,1.04541015625,0.1533203125,-3.2977099236641223,-3.572519083969466,-2.7480916030534353,42.13
1.253173828125,0.990234375,0.15380859375,-4.732824427480916,-0.7480916030534351,9.129770992366412,38.41235294117647
1.40869140625,1.062744140625,0.14453125,-4.847328244274809,1.0687022900763359,6.076335877862595,36.29470588235294
1.46337890625,1.210693359375,0.140625,-1.6793893129770991,0.4580152671755725,6.137404580152672,37.00058823529412
1.474365234375,1.177734375,0.14990234375,1.8244274809160306,0.42748091603053434,5.938931297709924,36.29470588235294
1.47607421875,1.160400390625,0.151611328125,-0.5725190839694656,-1.5038167938931297,15.435114503816793,36.71823529411765
1.6455078125,1.179931640625,0.140869140625,-1.1221374045801527,-1.6488549618320612,5.732824427480916,36.29470588235294
1.640625,1.191650390625,0.154052734375,-0.6717557251908397,0.1450381679389313,9.893129770992367,36.906470588235294
1.61669921875,1.1962890625,0.146484375,1.916030534351145,0.4122137404580153,-1.5954198473282444,35.91823529411765
1.690185546875,1.22900390625,0.147216796875,-1.8396946564885497,1.3358778625954197,4.404580152671755,37.04764705882353
1.6865234375,1.146728515625,0.14208984375,-1.0458015267175573,1.3053435114503817,16.213740458015266,37.09470588235294
1.70947265625,1.190673828125,0.140625,0.7557251908396947,1.786259541984733,0.08396946564885496,37.04764705882353
1.790283203125,1.2294921875,0.151123046875,1.3053435114503817,0.42748091603053434,8.038167938931299,36.341764705882355
1.644775390625,1.157958984375,0.156005859375,1.9083969465648856,-1.6793893129770991,3.7938931297709924,36.71823529411765
1.78564453125,1.1982421875,0.1533203125,-1.900763358778626,1.7709923664122138,4.305343511450381,36.906470588235294
1.657470703125,1.14501953125,0.14794921875,0.9694656488549618,0.9923664122137404,-7.358778625954199,36.85941176470588
1.716064453125,1.201171875,0.143310546875,-1.3358778625954197,1.7404580152671756,4.2748091603053435,36.906470588235294
1.66943359375,1.182373046875,0.144287109375,-0.816793893129771,1.2671755725190839,2.2977099236641223,37.00058823529412
1.667236328125,1.223876953125,0.1513671875,-1.1145038167938932,1.4809160305343512,11.801526717557252,36.906470588235294
1.58447265625,1.164794921875,0.151123046875,0.3435114503816794,-1.2595419847328244,5.740458015267175,37.235882352941175
1.53662109375,1.193359375,0.155029296875,-0.9236641221374046,1.6412213740458015,0.007633587786259542,36.906470588235294
1.592529296875,1.264404296875,0.1474609375,-1.7938931297709924,0.5190839694656488,2.236641221374046,36.76529411764706
1.4638671875,1.112060546875,0.152587890625,-1.5572519083969465,1.1984732824427482,7.969465648854962,37.09470588235294
1.443359375,1.262451171875,0.152099609375,-1.8931297709923665,1.9312977099236641,4.259541984732825,37.09470588235294
1.387939453125,1.231201171875,0.15576171875,-1.4351145038167938,0.8244274809160306,-5.557251908396947,36.71823529411765
1.290283203125,1.17822265625,0.143798828125,-3.3435114503816794,0.3435114503816794,10.114503816793894,37.235882352941175
1.109375,1.124267578125,0.145751953125,-2.1908396946564888,-0.9465648854961832,13.595419847328245,37.235882352941175
1.1474609375,1.1806640625,0.144775390625,0.22137404580152673,0.2824427480916031,3.9083969465648853,36.906470588235294
1.04345703125,1.16162109375,0.1494140625,-2.50381679389313,1.4961832061068703,-7.458015267175573,37.04764705882353
0.990234375,1.181396484375,0.1533203125,-4.106870229007634,1.6106870229007633,22.015267175572518,36.29470588235294
0.9296875,1.181396484375,0.14453125,-3.732824427480916,0.29770992366412213,0.22900763358778625,37.09470588235294
0.712158203125,1.2109375,0.16162109375,-2.3435114503816794,1.4885496183206106,0.6335877862595419,36.53
0.683837890625,1.24853515625,0.15576171875,-2.0916030534351147,1.1297709923664123,0.11450381679389313,36.24764705882353
0.595458984375,1.11181640625,0.1474609375,-2.145038167938931,0.9465648854961832,12.435114503816793,36.29470588235294
0.513671875,1.240966796875,0.149169921875,-5.1679389312977095,-1.2671755725190839,1.6564885496183206,35.54176470588236
0.380126953125,1.14794921875,0.1455078125,-0.10687022900763359,0.732824427480916,10.236641221374045,35.58882352941177
0.310546875,1.227783203125,0.142578125,-2.213740458015267,1.0305343511450382,3.198473282442748,34.788823529411765
0.134033203125,1.099609375,0.140625,-2.7099236641221376,0.6641221374045801,14.534351145038167,35.25941176470588
0.08935546875,1.137939453125,0.148681640625,2.7251908396946565,0.648854961832061,1.4351145038167938,34.788823529411765
-0.02880859375,1.053955078125,0.14453125,11.801526717557252,2.2900763358778624,20.87786259541985,34.03588235294118
-0.3056640625,1.0908203125,0.144775390625,17.931297709923665,2.6412213740458017,15.618320610687023,35.54176470588236
-0.159423828125,1.068603515625,0.154296875,22.236641221374047,5.572519083969466,-11.213740458015268,34.03588235294118
-0.27392578125,1.1474609375,0.1494140625,11.526717557251908,4.465648854961832,-0.45038167938931295,26.36529411764706
-0.64208984375,1.321044921875,0.153564453125,-4.66412213740458,-1.3893129770992367,-8.15267175572519,29.377058823529413
-0.652099609375,1.237060546875,0.1435546875,-4.396946564885496,1.1603053435114503,20.290076335877863,29.988823529411768
-0.725830078125,1.26318359375,0.14306640625,10.763358778625955,1.4580152671755726,-7.106870229007634,32.48294117647059
-0.865478515625,1.2841796875,0.146484375,2.427480916030534,1.5954198473282444,-1.984732824427481,33.235882352941175
-0.91357421875,1.20556640625,0.15380859375,-0.549618320610687,1.083969465648855,12.351145038167939,35.353529411764704
-1.0322265625,1.32666015625,0.150146484375,-4.312977099236641,-0.7633587786259542,7.33587786259542,36.1064705882353
-1.2001953125,1.078857421875,0.155029296875,-0.5877862595419847,0.6335877862595419,4.038167938931298,37.18882352941176
-1.0654296875,1.178955078125,0.142822265625,-0.5725190839694656,-0.061068702290076333,1.5190839694656488,36.29470588235294
-1.407470703125,1.081298828125,0.146484375,-0.030534351145038167,0.0916030534351145,6.305343511450381,35.49470588235294
-1.25927734375,1.263671875,0.155517578125,-2.5267175572519083,-1.5572519083969465,-5.9465648854961835,37.00058823529412
-1.403076171875,0.955078125,0.148681640625,1.8549618320610688,1.4580152671755726,18.290076335877863,36.341764705882355
-1.477783203125,1.31396484375,0.15283203125,1.3282442748091603,1.6564885496183206,12.221374045801527,36.29470588235294
-1.59619140625,1.2578125,0.141845703125,-0.07633587786259542,0.6717557251908397,0.11450381679389313,36.341764705882355
-1.609375,1.15869140625,0.14111328125,-1.2748091603053435,1.7557251908396947,-11.297709923664122,37.04764705882353
-1.582763671875,0.99658203125,0.1416015625,0.3816793893129771,0.6030534351145038,17.72519083969466,37.00058823529412
-1.724365234375,1.414306640625,0.150390625,0.5648854961832062,-0.15267175572519084,-9.778625954198473,36.341764705882355
-1.763916015625,1.04052734375,0.141845703125,-2.8625954198473282,-0.45038167938931295,17.519083969465647,36.906470588235294
-1.710205078125,1.22412109375,0.153076171875,3.404580152671756,0.015267175572519083,-7.694656488549619,35.54176470588236
-1.800537109375,1.185546875,0.151611328125,-4.709923664122138,-0.022900763358778626,9.534351145038167,37.09470588235294
-1.73046875,1.033935546875,0.148681640625,1.6870229007633588,0.5725190839694656,0.0,36.15352941176471
-1.762939453125,1.178955078125,0.1494140625,-1.4732824427480915,1.7938931297709924,11.969465648854962,37.04764705882353
-1.81884765625,1.202392578125,0.153564453125,-0.05343511450381679,-0.07633587786259542,-0.24427480916030533,36.15352941176471
-1.737060546875,1.183837890625,0.14990234375,-1.1984732824427482,-1.0305343511450382,15.488549618320612,37.04764705882353
-1.711669921875,1.166748046875,0.1455078125,1.3053435114503817,-1.5038167938931297,-2.045801526717557,36.29470588235294
-1.763671875,1.13623046875,0.14697265625,-1.7633587786259541,-1.1450381679389312,9.633587786259541,36.85941176470588
-1.631103515625,1.11181640625,0.146240234375,0.8778625954198473,0.7099236641221374,1.9770992366412214,36.15352941176471
-1.729248046875,1.308837890625,0.14111328125,-1.5114503816793894,0.3893129770992366,10.221374045801527,37.00058823529412
-1.514892578125,1.097900390625,0.144775390625,1.3206106870229009,-0.3893129770992366,-0.030534351145038167,36.29470588235294
-1.568115234375,1.047119140625,0.146240234375,0.07633587786259542,-0.1450381679389313,17.435114503816795,37.00058823529412
-1.507080078125,1.36279296875,0.1455078125,1.6870229007633588,-1.4274809160305344,-2.351145038167939,36.15352941176471
-1.43212890625,1.05712890625,0.144775390625,0.6641221374045801,-0.3053435114503817,3.877862595419847,36.29470588235294
-1.310302734375,1.07568359375,0.144287109375,2.4427480916030535,0.44274809160305345,5.862595419847328,36.29470588235294
-1.45751953125,1.193603515625,0.142578125,2.732824427480916,-1.4580152671755726,17.229007633587788,35.25941176470588
-1.00634765625,1.359619140625,0.15283203125,0.7251908396946565,0.9847328244274809,0.183206106870229,35.25941176470588
-1.206787109375,1.107177734375,0.1513671875,-1.4961832061068703,-0.5190839694656488,-13.694656488549619,36.906470588235294
-1.063720703125,1.159423828125,0.153564453125,-2.2748091603053435,0.4122137404580153,17.61832061068702,36.29470588235294
-0.93896484375,1.1845703125,0.14697265625,-2.954198473282443,1.282442748091603,2.0763358778625953,36.43588235294118
-0.8486328125,1.17431640625,0.1484375,-3.854961832061069,0.6717557251908397,-11.50381679389313,36.906470588235294
-0.70458984375,1.072021484375,0.15087890625,-1.702290076335878,-1.0610687022900764,7.786259541984733,37.00058823529412
-0.5166015625,1.3037109375,0.145263671875,-1.251908396946565,1.4274809160305344,13.954198473282442,36.24764705882353
-0.604248046875,1.171142578125,0.145263671875,1.900763358778626,-1.3282442748091603,-1.9770992366412214,35.54176470588236
-0.34716796875,1.206787109375,0.14453125,-0.8778625954198473,-1.0305343511450382,-8.122137404580153,37.04764705882353
-0.27734375,1.18505859375,0.141845703125,0.030534351145038167,-1.3129770992366412,3.572519083969466,36.15352941176471
-0.1728515625,1.168212890625,0.1455078125,-1.9312977099236641,-0.7786259541984732,15.587786259541986,36.15352941176471
-0.11279296875,1.180419921875,0.14794921875,-1.4427480916030535,1.1145038167938932,-1.366412213740458,37.235882352941175
0.103759765625,1.097900390625,0.152099609375,-1.8778625954198473,-0.5572519083969466,-4.648854961832061,37.04764705882353
0.155517578125,1.19921875,0.150390625,-0.6641221374045801,0.3282442748091603,15.916030534351146,36.15352941176471
0.2412109375,1.24658203125,0.155029296875,-0.45038167938931295,-1.3969465648854962,8.564885496183207,36.29470588235294
0.40966796875,1.181396484375,0.15576171875,-1.3435114503816794,1.786259541984733,3.931297709923664,37.04764705882353
0.457763671875,1.20556640625,0.155029296875,-3.8625954198473282,-1.7251908396946565,17.778625954198475,37.80058823529412
0.614013671875,1.245849609375,0.143798828125,1.534351145038168,-0.9923664122137404,-6.9541984732824424,37.80058823529412
0.74169921875,1.354736328125,0.1435546875,-2.145038167938931,2.8931297709923665,2.1603053435114505,38.27117647058824
0.54541015625,1.137939453125,0.1435546875,-0.183206106870229,1.7786259541984732,14.49618320610687,42.13
0.9365234375,1.3330078125,0.1552734375,-0.3893129770992366,-0.17557251908396945,7.106870229007634,42.13
1.0068359375,1.27294921875,0.14306640625,-0.1297709923664122,-1.083969465648855,-12.763358778625955,42.31823529411765
1.007080078125,1.269287109375,0.150146484375,-2.381679389312977,-0.4580152671755725,8.305343511450381,45.33
1.127685546875,1.21435546875,0.1455078125,-2.427480916030534,-0.648854961832061,-1.9236641221374047,46.788823529411765
1.344970703125,1.090087890625,0.144775390625,-2.312977099236641,-2.572519083969466,-9.259541984732824,45.33
1.211669921875,1.031005859375,0.148681640625,-7.030534351145038,-2.053435114503817,14.885496183206106,41.565294117647056
1.543212890625,0.9287109375,0.154541015625,-6.908396946564886,-0.7862595419847328,7.427480916030534,36.906470588235294
1.35400390625,1.2021484375,0.147216796875,-2.2748091603053435,-0.26717557251908397,13.106870229007633,35.96529411764706
1.610595703125,1.210205078125,0.14404296875,-0.022900763358778626,-1.6106870229007633,-6.00763358778626,36.43588235294118
1.378173828125,1.199951171875,0.14501953125,-2.717557251908397,-1.1145038167938932,21.12213740458015,36.76529411764706
1.700439453125,1.169677734375,0.153076171875,-2.33587786259542,1.083969465648855,8.15267175572519,36.24764705882353
1.63818359375,1.259521484375,0.1474609375,-1.0763358778625953,1.1145038167938932,2.0,37.18882352941176
