accelerationX,accelerationY,accelerationZ,gyroscopeX,gyroscopeY,gyroscopeZ,Temperature
1.6845703125,0.882080078125,-0.188232421875,0.7709923664122137,1.6564885496183206,0.24427480916030533,35.118235294117646
1.72802734375,1.068359375,-0.19482421875,1.5038167938931297,1.9312977099236641,12.572519083969466,34.41235294117647
1.76953125,0.8271484375,-0.19384765625,0.022900763358778626,1.6106870229007633,-1.5267175572519085,35.118235294117646
1.74072265625,0.97607421875,-0.193115234375,-1.0,1.8625954198473282,4.190839694656488,34.459411764705884
1.724609375,0.93896484375,-0.190673828125,2.450381679389313,0.5801526717557252,-1.297709923664122,35.16529411764706
1.7197265625,0.96923828125,-0.19091796875,1.8931297709923665,1.297709923664122,2.6564885496183206,34.41235294117647
1.656982421875,0.826904296875,-0.2021484375,1.6793893129770991,0.6870229007633588,2.5419847328244276,34.41235294117647
1.709716796875,1.008056640625,-0.194091796875,-0.5267175572519084,1.8854961832061068,0.5343511450381679,34.41235294117647
1.6044921875,0.93994140625,-0.1962890625,0.7175572519083969,1.5190839694656488,0.183206106870229,35.118235294117646
1.69189453125,0.929931640625,-0.19677734375,-0.3435114503816794,1.900763358778626,0.32061068702290074,34.36529411764706
1.610595703125,0.79931640625,-0.20263671875,1.900763358778626,-1.2442748091603053,-4.076335877862595,34.459411764705884
1.57861328125,0.977294921875,-0.18994140625,0.24427480916030533,-1.8473282442748091,13.664122137404581,35.21235294117647
1.51611328125,0.9794921875,-0.199462890625,3.595419847328244,0.1297709923664122,4.793893129770993,34.506470588235295
1.5341796875,0.886962890625,-0.194091796875,1.2213740458015268,1.1374045801526718,14.427480916030534,34.41235294117647
1.42529296875,0.844970703125,-0.19921875,-0.7404580152671756,1.3435114503816794,-3.213740458015267,34.41235294117647
1.365966796875,0.925048828125,-0.201904296875,-1.6870229007633588,1.7557251908396947,14.045801526717558,35.118235294117646
1.403076171875,1.017822265625,-0.190185546875,1.083969465648855,-1.618320610687023,-4.66412213740458,35.118235294117646
1.23095703125,0.97607421875,-0.18798828125,1.6793893129770991,-1.786259541984733,6.763358778625954,34.459411764705884
1.096435546875,0.778076171875,-0.18798828125,1.3358778625954197,1.3129770992366412,2.2061068702290076,35.118235294117646
1.109130859375,0.987548828125,-0.188232421875,-0.9236641221374046,1.6106870229007633,14.335877862595419,34.41235294117647
0.93115234375,0.689697265625,-0.1953125,-1.3893129770992367,1.6717557251908397,3.1297709923664123,35.82411764705883
0.9697265625,1.09912109375,-0.199951171875,1.3435114503816794,0.8549618320610687,-8.488549618320612,34.41235294117647
0.8251953125,0.8134765625,-0.19189453125,1.8549618320610688,1.702290076335878,-11.0,34.41235294117647
0.640869140625,0.978515625,-0.197509765625,1.2671755725190839,-0.816793893129771,5.419847328244275,34.459411764705884
0.4775390625,0.80810546875,-0.196044921875,3.83206106870229,5.633587786259542,8.381679389312977,34.36529411764706
0.54833984375,0.775634765625,-0.1884765625,-0.13740458015267176,-1.083969465648855,12.297709923664122,34.459411764705884
0.4833984375,0.961181640625,-0.1943359375,1.3511450381679388,0.08396946564885496,7.305343511450381,34.459411764705884
0.476806640625,0.93896484375,-0.19921875,1.786259541984733,0.8244274809160306,1.16793893129771,35.16529411764706
0.309814453125,0.922607421875,-0.19482421875,0.5572519083969466,1.3587786259541985,10.641221374045802,35.25941176470588
0.15283203125,0.998779296875,-0.194091796875,0.5648854961832062,5.114503816793893,-1.4198473282442747,35.16529411764706
0.030517578125,1.07763671875,-0.195556640625,2.946564885496183,-1.1984732824427482,-4.931297709923665,34.41235294117647
-0.1962890625,0.765380859375,-0.193115234375,0.17557251908396945,-0.9007633587786259,3.3740458015267176,35.16529411764706
-0.313720703125,0.761962890625,-0.191650390625,1.4351145038167938,0.12213740458015267,7.099236641221374,35.118235294117646
-0.495361328125,0.93359375,-0.194091796875,1.2061068702290076,1.534351145038168,-0.8625954198473282,34.55352941176471
-0.4873046875,0.864990234375,-0.191162109375,-3.0076335877862594,-0.42748091603053434,3.7786259541984735,35.25941176470588
-0.63427734375,0.741943359375,-0.187744140625,3.267175572519084,-0.7709923664122137,1.549618320610687,34.41235294117647
-0.63623046875,1.124267578125,-0.193115234375,-1.3893129770992367,1.7557251908396947,0.816793893129771,35.16529411764706
-0.86083984375,0.8525390625,-0.201416015625,-0.7175572519083969,1.6946564885496183,11.893129770992367,35.25941176470588
-0.989990234375,0.76220703125,-0.18798828125,0.5801526717557252,-1.0,19.52671755725191,35.21235294117647
-0.95947265625,1.031494140625,-0.19580078125,0.6564885496183206,0.09923664122137404,0.8549618320610687,35.21235294117647
-1.105224609375,1.044921875,-0.19775390625,1.8931297709923665,0.4961832061068702,2.0839694656488548,34.36529411764706
-1.191162109375,0.729736328125,-0.19287109375,1.6717557251908397,1.099236641221374,8.473282442748092,35.21235294117647
-1.315185546875,0.88671875,-0.1953125,-1.900763358778626,1.8015267175572518,18.236641221374047,35.25941176470588
-1.271728515625,0.90087890625,-0.200439453125,0.5038167938931297,-0.6564885496183206,13.045801526717558,35.16529411764706
-1.301513671875,1.042236328125,-0.197265625,1.717557251908397,0.366412213740458,-7.938931297709924,34.41235294117647
-1.47900390625,0.880859375,-0.189697265625,0.5954198473282443,1.1145038167938932,-3.2900763358778624,35.118235294117646
-1.703369140625,0.828125,-0.189697265625,-1.381679389312977,1.9312977099236641,-5.824427480916031,35.21235294117647
-1.70361328125,0.857666015625,-0.187744140625,1.083969465648855,1.9465648854961832,10.633587786259541,35.21235294117647
-1.534912109375,1.2216796875,-0.198486328125,0.9007633587786259,0.8931297709923665,8.816793893129772,34.36529411764706
-1.7470703125,0.877685546875,-0.190673828125,0.4961832061068702,1.1221374045801527,-3.2061068702290076,34.41235294117647
-1.81005859375,0.862060546875,-0.1904296875,0.09923664122137404,0.7022900763358778,-1.366412213740458,35.16529411764706
-1.82470703125,0.854248046875,-0.20166015625,0.6717557251908397,1.5114503816793894,-1.6641221374045803,35.16529411764706
-1.693603515625,0.946533203125,-0.203125,-1.6870229007633588,1.5954198473282444,11.977099236641221,35.25941176470588
-1.667724609375,0.911865234375,-0.191650390625,1.6641221374045803,1.0,4.145038167938932,34.459411764705884
-1.757568359375,0.879150390625,-0.197021484375,0.5190839694656488,0.5114503816793893,4.1603053435114505,35.21235294117647
-1.75732421875,0.92041015625,-0.191650390625,1.717557251908397,0.8091603053435115,6.122137404580153,34.459411764705884
-1.763671875,0.89599609375,-0.197509765625,1.8625954198473282,1.0305343511450382,4.32824427480916,34.459411764705884
-1.74072265625,0.942138671875,-0.19287109375,1.5572519083969465,0.06870229007633588,12.045801526717558,34.506470588235295
-1.75830078125,0.97509765625,-0.198974609375,1.4580152671755726,1.0916030534351144,4.549618320610687,34.41235294117647
-1.727783203125,0.880615234375,-0.194091796875,0.48854961832061067,0.4732824427480916,4.595419847328245,35.16529411764706
-1.639892578125,0.981689453125,-0.201904296875,-1.6717557251908397,1.5648854961832062,10.022900763358779,35.25941176470588
-1.62353515625,0.8994140625,-0.203125,0.2748091603053435,1.5419847328244274,-1.6030534351145038,35.071176470588235
-1.5322265625,0.98388671875,-0.201416015625,1.7709923664122138,0.0916030534351145,-1.7633587786259541,34.459411764705884
-1.504150390625,0.76416015625,-0.196533203125,3.6793893129770994,0.3511450381679389,9.954198473282442,34.459411764705884
-1.3896484375,1.0068359375,-0.19482421875,0.7862595419847328,1.6946564885496183,14.022900763358779,34.41235294117647
-1.226318359375,0.8916015625,-0.1943359375,2.1908396946564888,0.6870229007633588,16.27480916030534,34.41235294117647
-1.199951171875,0.858642578125,-0.19091796875,0.1297709923664122,1.8015267175572518,9.992366412213741,35.16529411764706
-1.2041015625,0.8896484375,-0.19580078125,0.3282442748091603,0.35877862595419846,-3.7099236641221376,35.16529411764706
-1.234130859375,0.8876953125,-0.195556640625,1.3969465648854962,0.5877862595419847,-9.221374045801527,35.21235294117647
-1.103515625,1.01806640625,-0.1943359375,-1.8702290076335877,1.786259541984733,15.65648854961832,35.21235294117647
-0.966064453125,0.901123046875,-0.195068359375,3.564885496183206,0.5725190839694656,14.13740458015267,34.459411764705884
-0.81298828125,1.08349609375,-0.18994140625,1.900763358778626,0.3282442748091603,6.145038167938932,34.459411764705884
-0.815673828125,0.854736328125,-0.194580078125,0.8854961832061069,0.6183206106870229,-3.3053435114503817,34.506470588235295
-0.613525390625,0.88232421875,-0.197021484375,1.0229007633587786,1.6106870229007633,-10.664122137404581,34.506470588235295
-0.5419921875,0.906494140625,-0.1982421875,0.07633587786259542,1.0763358778625953,2.3587786259541983,35.25941176470588
-0.47021484375,0.91845703125,-0.19873046875,1.9389312977099236,1.1145038167938932,0.5267175572519084,34.41235294117647
-0.384521484375,0.852294921875,-0.188232421875,0.1297709923664122,-1.5725190839694656,-6.122137404580153,35.118235294117646
-0.28662109375,0.820556640625,-0.195068359375,-0.9770992366412213,3.763358778625954,0.37404580152671757,35.21235294117647
-0.1650390625,0.973876953125,-0.19873046875,0.9770992366412213,-0.9389312977099237,11.595419847328245,34.55352941176471
0.010986328125,0.84814453125,-0.1904296875,0.1450381679389313,0.8854961832061069,-0.8778625954198473,34.41235294117647
0.031494140625,0.95263671875,-0.19189453125,-0.16793893129770993,1.9083969465648856,4.6106870229007635,34.506470588235295
0.181640625,1.018310546875,-0.19677734375,1.9465648854961832,-0.5038167938931297,-12.061068702290076,34.31823529411765
0.211181640625,0.793212890625,-0.19775390625,2.145038167938931,0.32061068702290074,17.66412213740458,35.25941176470588
0.46337890625,0.781005859375,-0.194091796875,1.4961832061068703,-2.236641221374046,5.641221374045801,34.459411764705884
0.5986328125,1.032958984375,-0.188720703125,1.2442748091603053,0.5038167938931297,7.343511450381679,34.459411764705884
0.663330078125,0.9697265625,-0.1923828125,1.6870229007633588,0.3511450381679389,17.49618320610687,33.7064705882353
0.771240234375,0.789794921875,-0.196044921875,3.6717557251908395,0.10687022900763359,2.381679389312977,34.459411764705884
0.84619140625,1.0029296875,-0.18896484375,1.6030534351145038,0.007633587786259542,7.061068702290076,34.41235294117647
0.844482421875,0.82470703125,-0.201416015625,0.15267175572519084,-2.114503816793893,8.435114503816793,35.071176470588235
1.081787109375,0.994140625,-0.1962890625,1.5114503816793894,0.6259541984732825,3.2900763358778624,35.16529411764706
1.166748046875,0.878173828125,-0.19189453125,0.9083969465648855,-2.045801526717557,-19.389312977099237,34.41235294117647
1.064453125,0.90576171875,-0.189697265625,-1.717557251908397,3.450381679389313,-13.381679389312977,35.16529411764706
1.1796875,0.950439453125,-0.199951171875,1.8396946564885497,1.3282442748091603,10.15267175572519,33.7064705882353
1.41357421875,0.9072265625,-0.198486328125,1.366412213740458,1.015267175572519,-9.610687022900763,34.459411764705884
1.334716796875,0.89697265625,-0.197265625,-0.9465648854961832,1.0534351145038168,8.51908396946565,35.25941176470588
1.456298828125,0.779296875,-0.19384765625,1.1603053435114503,-0.4122137404580153,11.129770992366412,34.41235294117647
1.51171875,0.89404296875,-0.18994140625,-1.717557251908397,0.3282442748091603,2.900763358778626,36.012352941176474
1.5859375,1.01513671875,-0.1943359375,3.33587786259542,2.3206106870229006,19.702290076335878,33.65941176470589
1.6318359375,0.9521484375,-0.197265625,-0.8778625954198473,1.8854961832061068,4.679389312977099,35.118235294117646
1.633056640625,0.927001953125,-0.19970703125,0.48091603053435117,1.6641221374045803,4.595419847328245,34.36529411764706
1.76318359375,0.894775390625,-0.201416015625,-1.6641221374045803,1.2900763358778626,8.13740458015267,35.21235294117647
1.659912109375,0.952392578125,-0.190673828125,3.2061068702290076,1.4198473282442747,0.32061068702290074,34.459411764705884
1.718994140625,0.842529296875,-0.19287109375,-0.9389312977099237,1.7633587786259541,4.282442748091603,35.25941176470588
1.63623046875,0.785888671875,-0.202392578125,3.8931297709923665,0.6335877862595419,0.6335877862595419,34.41235294117647
1.752685546875,1.013427734375,-0.189453125,0.030534351145038167,0.5877862595419847,8.595419847328245,35.25941176470588
1.7490234375,0.98583984375,-0.19091796875,1.183206106870229,1.2595419847328244,2.8244274809160306,34.41235294117647
1.705810546875,0.929443359375,-0.1884765625,1.1068702290076335,0.648854961832061,10.587786259541986,34.459411764705884
1.671875,0.94873046875,-0.197509765625,1.900763358778626,0.48854961832061067,-3.404580152671756,34.36529411764706
1.65625,0.917236328125,-0.19189453125,1.8244274809160306,-1.1526717557251909,9.725190839694656,34.459411764705884
1.649658203125,0.86572265625,-0.188720703125,0.31297709923664124,0.5038167938931297,-3.351145038167939,35.16529411764706
1.653564453125,0.932373046875,-0.2001953125,1.6412213740458015,0.26717557251908397,8.068702290076336,34.41235294117647
1.560791015625,0.885009765625,-0.200439453125,0.8396946564885496,1.6564885496183206,-3.4427480916030535,35.25941176470588
1.66162109375,1.005859375,-0.191650390625,1.8473282442748091,0.4122137404580153,6.786259541984733,34.41235294117647
1.4765625,0.91796875,-0.19091796875,1.8549618320610688,1.5877862595419847,-8.961832061068701,33.7064705882353
1.318115234375,0.691650390625,-0.20263671875,-0.6564885496183206,1.1145038167938932,8.694656488549619,35.30647058823529
1.3369140625,0.8720703125,-0.19384765625,0.7709923664122137,-0.2595419847328244,-0.09923664122137404,34.459411764705884
1.364990234375,1.05517578125,-0.193115234375,-0.9923664122137404,0.40458015267175573,19.435114503816795,35.02411764705882
1.32568359375,0.868896484375,-0.19482421875,2.7480916030534353,-2.236641221374046,-6.900763358778626,34.41235294117647
1.108154296875,0.987060546875,-0.19287109375,-1.7786259541984732,-5.763358778625954,10.450381679389313,35.91823529411765
1.117431640625,0.738037109375,-0.1884765625,2.282442748091603,0.4961832061068702,1.618320610687023,35.16529411764706
1.06982421875,1.093017578125,-0.19140625,-0.9465648854961832,-0.11450381679389313,5.198473282442748,35.16529411764706
1.01318359375,0.836669921875,-0.20068359375,0.8244274809160306,-0.5954198473282443,12.19083969465649,34.506470588235295
0.953857421875,1.065673828125,-0.191162109375,-1.4427480916030535,-0.17557251908396945,9.305343511450381,34.459411764705884
0.794677734375,0.897216796875,-0.19677734375,1.618320610687023,-2.114503816793893,8.17557251908397,34.459411764705884
0.529296875,0.673583984375,-0.2001953125,0.2824427480916031,1.1908396946564885,0.13740458015267176,35.91823529411765
0.485107421875,0.867431640625,-0.18994140625,1.4274809160305344,-3.2061068702290076,-4.7251908396946565,34.31823529411765
0.400146484375,0.88720703125,-0.191650390625,-1.183206106870229,3.2977099236641223,-3.068702290076336,35.16529411764706
0.35888671875,1.136962890625,-0.18896484375,3.0610687022900764,-1.5877862595419847,7.3816793893129775,34.41235294117647
0.1533203125,0.956787109375,-0.189453125,-1.6870229007633588,1.816793893129771,6.572519083969466,35.118235294117646
0.023193359375,0.80908203125,-0.1943359375,0.4122137404580153,5.458015267175573,19.435114503816795,34.36529411764706
0.09765625,0.91748046875,-0.193115234375,-1.2595419847328244,-0.22137404580152673,-9.083969465648854,35.21235294117647
-0.233154296875,0.9521484375,-0.19140625,0.12213740458015267,2.3969465648854964,-3.4198473282442747,35.118235294117646
-0.221923828125,0.923828125,-0.190185546875,1.0305343511450382,-1.9389312977099236,7.938931297709924,35.16529411764706
-0.38427734375,0.882568359375,-0.196533203125,3.0916030534351147,-1.5572519083969465,6.526717557251908,35.16529411764706
-0.544189453125,0.946044921875,-0.200927734375,-1.6412213740458015,0.37404580152671757,7.977099236641221,35.16529411764706
-0.60107421875,0.860595703125,-0.20166015625,-0.4961832061068702,1.4045801526717556,18.35114503816794,34.41235294117647
-0.576171875,1.065673828125,-0.19970703125,1.9236641221374047,1.1526717557251909,-14.16793893129771,34.36529411764706
-0.8330078125,1.025146484375,-0.195556640625,0.48854961832061067,-0.9389312977099237,-8.564885496183207,35.118235294117646
-0.990478515625,0.7490234375,-0.18994140625,0.07633587786259542,-0.9770992366412213,19.404580152671755,35.118235294117646
-1.0224609375,0.80908203125,-0.19189453125,-0.8625954198473282,1.8396946564885497,11.969465648854962,35.118235294117646
-1.12353515625,0.9443359375,-0.19482421875,0.6335877862595419,0.2748091603053435,6.305343511450381,35.25941176470588
-1.1669921875,0.932373046875,-0.201171875,1.3129770992366412,1.8778625954198473,-3.480916030534351,34.41235294117647
-1.27734375,0.783935546875,-0.19091796875,-1.0458015267175573,1.3511450381679388,4.587786259541985,35.16529411764706
-1.44677734375,0.87890625,-0.18896484375,-1.1603053435114503,1.7328244274809161,18.297709923664122,35.21235294117647
-1.2890625,1.08447265625,-0.193603515625,1.7328244274809161,0.7175572519083969,12.83969465648855,34.459411764705884
-1.482177734375,0.952392578125,-0.194580078125,1.6717557251908397,1.4809160305343512,-1.4809160305343512,34.459411764705884
-1.4736328125,0.896240234375,-0.201904296875,0.2748091603053435,0.8549618320610687,-3.198473282442748,35.118235294117646
-1.590087890625,0.875244140625,-0.19287109375,1.0687022900763359,1.7328244274809161,-3.519083969465649,34.41235294117647
-1.755859375,0.736328125,-0.201171875,1.748091603053435,0.732824427480916,6.435114503816794,35.25941176470588
-1.645263671875,0.990478515625,-0.20166015625,1.83206106870229,0.7709923664122137,6.022900763358779,34.41235294117647
-1.620361328125,1.12890625,-0.19580078125,1.7709923664122138,0.007633587786259542,10.213740458015268,34.31823529411765
-1.758544921875,0.966796875,-0.196533203125,0.46564885496183206,1.7786259541984732,18.16793893129771,34.41235294117647
-1.707763671875,0.98193359375,-0.192626953125,0.030534351145038167,0.6412213740458015,2.145038167938931,35.21235294117647
-1.78076171875,0.941650390625,-0.199462890625,-1.0610687022900764,1.6717557251908397,0.0,35.21235294117647
-1.90966796875,0.7802734375,-0.2021484375,1.7404580152671756,0.3511450381679389,-3.5877862595419847,34.459411764705884
-1.7783203125,0.912109375,-0.189697265625,0.9007633587786259,0.25190839694656486,9.916030534351146,35.25941176470588
-1.704833984375,1.02978515625,-0.201171875,0.8931297709923665,1.1145038167938932,12.351145038167939,34.31823529411765
-1.70556640625,0.943603515625,-0.201904296875,0.22900763358778625,1.0,2.3206106870229006,35.16529411764706
-1.694580078125,0.96923828125,-0.200439453125,1.702290076335878,0.8854961832061069,0.4351145038167939,34.459411764705884
-1.752197265625,0.811279296875,-0.203125,1.4732824427480915,0.5190839694656488,-3.4885496183206106,34.459411764705884
-1.699951171875,0.838134765625,-0.19287109375,0.32061068702290074,1.1145038167938932,10.183206106870228,35.118235294117646
-1.606201171875,0.937255859375,-0.188720703125,1.083969465648855,0.7786259541984732,16.114503816793892,34.36529411764706
-1.41064453125,1.0029296875,-0.193359375,0.16793893129770993,0.8549618320610687,4.6183206106870225,35.16529411764706
-1.531982421875,1.107177734375,-0.193359375,1.0534351145038168,1.702290076335878,-5.213740458015267,34.41235294117647
-1.5791015625,0.765380859375,-0.194580078125,0.31297709923664124,1.5801526717557253,10.122137404580153,35.25941176470588
-1.436767578125,0.898681640625,-0.201904296875,0.2900763358778626,0.7633587786259542,4.213740458015267,35.071176470588235
-1.205810546875,0.91259765625,-0.192138671875,0.7022900763358778,1.3893129770992367,14.412213740458014,34.459411764705884
-1.12646484375,1.08642578125,-0.193115234375,3.5114503816793894,-1.1526717557251909,1.6946564885496183,34.27117647058824
-1.10009765625,0.908203125,-0.203125,0.09923664122137404,0.35877862595419846,0.732824427480916,35.21235294117647
-1.064208984375,0.788330078125,-0.201904296875,0.4580152671755725,-1.1755725190839694,-0.5877862595419847,35.21235294117647
-0.969970703125,0.943359375,-0.189697265625,-1.9389312977099236,0.9618320610687023,14.587786259541986,35.25941176470588
-0.8955078125,0.94970703125,-0.192626953125,1.3740458015267176,-1.5419847328244274,-2.3435114503816794,35.25941176470588
-0.756591796875,0.972412109375,-0.1884765625,3.3740458015267176,0.4351145038167939,12.076335877862595,34.41235294117647
-0.734130859375,0.975341796875,-0.193603515625,0.6641221374045801,0.2366412213740458,-12.664122137404581,34.41235294117647
-0.602783203125,0.75048828125,-0.199462890625,-0.015267175572519083,1.7938931297709924,3.9236641221374047,34.459411764705884
-0.59521484375,0.78515625,-0.192626953125,0.09923664122137404,1.0229007633587786,-1.3740458015267176,35.21235294117647
-0.3291015625,0.822021484375,-0.199951171875,0.2595419847328244,0.3435114503816794,0.10687022900763359,35.118235294117646
-0.109619140625,0.98876953125,-0.191162109375,1.3587786259541985,-1.5114503816793894,5.641221374045801,34.41235294117647
-0.197265625,0.979248046875,-0.20068359375,0.9465648854961832,-0.4580152671755725,14.526717557251908,34.506470588235295
-0.022216796875,0.861572265625,-0.1943359375,-0.183206106870229,-0.48091603053435117,7.3816793893129775,34.41235294117647
0.11376953125,0.87548828125,-0.1943359375,-1.7404580152671756,0.8091603053435115,14.312977099236642,35.071176470588235
0.216064453125,1.049072265625,-0.198486328125,-0.11450381679389313,-0.9465648854961832,15.251908396946565,34.41235294117647
0.4052734375,0.798828125,-0.19482421875,-1.0763358778625953,-0.015267175572519083,-8.16793893129771,35.21235294117647
0.474853515625,0.76708984375,-0.190673828125,1.9389312977099236,-1.4351145038167938,18.84732824427481,35.21235294117647
0.595458984375,0.894287109375,-0.190673828125,1.183206106870229,-2.1068702290076335,-10.786259541984732,34.459411764705884
0.668212890625,0.751708984375,-0.19140625,0.06870229007633588,0.9007633587786259,9.954198473282442,35.16529411764706
0.74951171875,0.888916015625,-0.19091796875,3.549618320610687,1.2595419847328244,11.511450381679388,33.65941176470589
0.93310546875,0.947265625,-0.191162109375,2.946564885496183,0.183206106870229,-3.480916030534351,34.41235294117647
0.814697265625,0.858154296875,-0.190673828125,-1.099236641221374,1.2595419847328244,2.0610687022900764,35.16529411764706
1.001708984375,0.820068359375,-0.197021484375,1.465648854961832,-0.9083969465648855,7.282442748091603,34.36529411764706
1.17236328125,1.152099609375,-0.19873046875,0.45038167938931295,-2.7022900763358777,-11.82442748091603,35.118235294117646
1.087890625,0.80810546875,-0.19677734375,0.183206106870229,3.114503816793893,1.9923664122137406,35.21235294117647
1.212646484375,1.001708984375,-0.19921875,1.0916030534351144,-1.7404580152671756,-4.801526717557252,34.506470588235295
1.218994140625,0.807861328125,-0.189453125,-1.4732824427480915,1.366412213740458,2.1374045801526718,35.071176470588235
1.343017578125,0.933837890625,-0.19580078125,0.7938931297709924,1.16793893129771,15.16030534351145,34.41235294117647
1.61328125,0.93017578125,-0.195556640625,0.33587786259541985,1.4580152671755726,13.80916030534351,34.506470588235295
1.599609375,0.946044921875,-0.18798828125,-0.007633587786259542,1.702290076335878,2.0610687022900764,34.459411764705884
1.552978515625,0.908447265625,-0.19384765625,-0.8931297709923665,1.9236641221374047,16.18320610687023,35.21235294117647
1.556640625,0.881591796875,-0.203125,2.1068702290076335,0.16030534351145037,2.381679389312977,35.21235294117647
1.719970703125,0.902099609375,-0.19140625,-1.5190839694656488,0.8244274809160306,0.5572519083969466,35.21235294117647
1.65234375,0.914306640625,-0.1962890625,0.4122137404580153,1.5725190839694656,6.709923664122138,34.41235294117647
1.708740234375,0.9697265625,-0.19091796875,0.44274809160305345,1.3511450381679388,-1.3358778625954197,35.16529411764706
1.668701171875,0.81396484375,-0.195556640625,3.6412213740458017,0.4351145038167939,6.358778625954199,34.41235294117647
1.730224609375,0.8828125,-0.189697265625,0.08396946564885496,1.618320610687023,0.4961832061068702,35.16529411764706
1.7646484375,0.941650390625,-0.197021484375,1.6030534351145038,0.9465648854961832,6.320610687022901,34.36529411764706
1.69384765625,0.915283203125,-0.19775390625,0.4961832061068702,1.4274809160305344,2.6946564885496183,35.21235294117647
1.758544921875,0.934326171875,-0.191162109375,1.5190839694656488,0.8320610687022901,4.557251908396947,34.27117647058824
1.701171875,0.8603515625,-0.19677734375,1.6717557251908397,0.2366412213740458,-5.213740458015267,34.459411764705884
1.65185546875,0.904052734375,-0.196044921875,0.07633587786259542,0.19083969465648856,0.3511450381679389,35.16529411764706
1.667724609375,0.98193359375,-0.1943359375,0.015267175572519083,1.3129770992366412,-7.259541984732825,35.16529411764706
1.609130859375,0.920166015625,-0.19384765625,1.916030534351145,0.8015267175572519,4.190839694656488,34.41235294117647
1.634765625,0.960693359375,-0.1923828125,1.6870229007633588,0.9007633587786259,0.11450381679389313,34.41235294117647
1.651611328125,0.905517578125,-0.188232421875,0.7862595419847328,2.3893129770992365,-3.885496183206107,35.16529411764706
1.40185546875,0.869140625,-0.1884765625,0.030534351145038167,-1.0,-0.5648854961832062,35.21235294117647
1.382080078125,0.927978515625,-0.201904296875,-0.24427480916030533,1.3893129770992367,8.221374045801527,34.36529411764706
1.39501953125,0.854736328125,-0.191650390625,0.8702290076335878,-0.5190839694656488,11.145038167938932,34.41235294117647
1.28759765625,0.986083984375,-0.1884765625,-1.3740458015267176,1.8473282442748091,6.67175572519084,35.25941176470588
1.273193359375,0.830810546875,-0.199462890625,0.5954198473282443,0.8091603053435115,15.045801526717558,35.16529411764706
1.134765625,0.814697265625,-0.197265625,-1.4809160305343512,-0.6030534351145038,-1.4809160305343512,35.16529411764706
1.06103515625,1.06396484375,-0.203125,1.8091603053435115,-2.969465648854962,3.145038167938931,34.459411764705884
0.984619140625,1.0859375,-0.1962890625,3.6030534351145036,0.7557251908396947,4.801526717557252,34.459411764705884
0.9296875,0.880615234375,-0.197998046875,0.45038167938931295,-4.320610687022901,7.5038167938931295,35.21235294117647
0.7763671875,0.73095703125,-0.192138671875,2.435114503816794,-2.8473282442748094,11.641221374045802,34.36529411764706
0.792236328125,0.8310546875,-0.193115234375,-0.8778625954198473,2.885496183206107,3.984732824427481,35.16529411764706
0.649169921875,1.1083984375,-0.199462890625,1.4274809160305344,1.3587786259541985,17.412213740458014,34.506470588235295
0.636474609375,0.9560546875,-0.188232421875,0.022900763358778626,-3.4885496183206106,4.488549618320611,35.071176470588235
0.37109375,0.822998046875,-0.191650390625,0.5267175572519084,2.3587786259541983,-1.8778625954198473,35.118235294117646
0.26904296875,1.0068359375,-0.18798828125,0.6335877862595419,0.7175572519083969,10.450381679389313,35.118235294117646
0.136962890625,0.94873046875,-0.195068359375,0.19083969465648856,2.50381679389313,9.908396946564885,35.30647058823529
0.054443359375,0.925048828125,-0.189453125,1.717557251908397,-0.7786259541984732,13.664122137404581,34.55352941176471
0.06396484375,1.101318359375,-0.199951171875,0.2824427480916031,0.6106870229007634,6.931297709923665,35.16529411764706
-0.08203125,1.044189453125,-0.19384765625,1.8778625954198473,-2.33587786259542,-6.083969465648855,34.41235294117647
-0.294921875,0.839599609375,-0.193115234375,0.8702290076335878,7.030534351145038,-1.3435114503816794,35.25941176470588
-0.434326171875,0.8095703125,-0.193115234375,-1.5725190839694656,-1.0458015267175573,14.755725190839694,35.16529411764706
-0.447021484375,0.83935546875,-0.19189453125,0.6259541984732825,-1.0229007633587786,-6.015267175572519,35.21235294117647
-0.546875,0.94873046875,-0.188232421875,-0.1984732824427481,-0.015267175572519083,17.50381679389313,34.459411764705884
-0.69970703125,0.989501953125,-0.19091796875,-1.0381679389312977,1.916030534351145,9.526717557251908,35.21235294117647
-0.71728515625,0.9775390625,-0.1962890625,1.748091603053435,1.1374045801526718,11.427480916030534,34.459411764705884
-0.904296875,1.019775390625,-0.201416015625,1.2366412213740459,0.9236641221374046,6.603053435114504,35.16529411764706
-0.889892578125,0.943115234375,-0.20263671875,1.1450381679389312,-1.8549618320610688,11.114503816793894,34.41235294117647
-1.084716796875,0.855224609375,-0.191162109375,0.3435114503816794,1.2671755725190839,6.580152671755725,35.25941176470588
-1.14794921875,0.809814453125,-0.20166015625,0.3511450381679389,0.8244274809160306,10.473282442748092,35.91823529411765
-1.10546875,1.117919921875,-0.1904296875,0.46564885496183206,-0.8473282442748091,27.83969465648855,34.31823529411765
-1.286865234375,0.900634765625,-0.18994140625,-0.5038167938931297,1.8549618320610688,-0.7175572519083969,34.459411764705884
-1.321044921875,1.135986328125,-0.197509765625,1.4274809160305344,1.9465648854961832,5.106870229007634,34.459411764705884
-1.367431640625,1.10498046875,-0.197509765625,1.251908396946565,0.8625954198473282,2.9923664122137406,34.31823529411765
-1.51953125,0.73583984375,-0.20263671875,0.7251908396946565,1.2213740458015268,5.984732824427481,35.16529411764706
-1.701904296875,0.770751953125,-0.189697265625,0.16793893129770993,1.2595419847328244,-5.305343511450381,35.16529411764706
-1.653564453125,0.9794921875,-0.19580078125,0.183206106870229,1.0,-3.4427480916030535,35.25941176470588
-1.597412109375,1.05322265625,-0.194091796875,1.6030534351145038,0.29770992366412213,-5.32824427480916,34.459411764705884
-1.801513671875,0.857177734375,-0.1962890625,1.4122137404580153,0.1984732824427481,-3.572519083969466,35.21235294117647
-1.840087890625,0.917236328125,-0.202880859375,-0.5572519083969466,1.5877862595419847,11.938931297709924,34.459411764705884
-1.739990234375,0.803955078125,-0.189453125,0.3816793893129771,0.9312977099236641,4.198473282442748,35.118235294117646
-1.714599609375,0.995849609375,-0.19482421875,1.1755725190839694,1.4198473282442747,6.320610687022901,34.41235294117647
-1.7509765625,0.926513671875,-0.200439453125,-1.916030534351145,1.3969465648854962,5.938931297709924,35.16529411764706
-1.791259765625,0.9091796875,-0.191162109375,0.7480916030534351,1.9465648854961832,6.137404580152672,35.16529411764706
-1.741455078125,0.979736328125,-0.19921875,1.4427480916030535,0.3969465648854962,4.404580152671755,34.41235294117647
-1.7548828125,0.8173828125,-0.190673828125,1.9389312977099236,1.0,4.251908396946565,34.36529411764706
-1.69091796875,1.011962890625,-0.19189453125,1.1908396946564885,0.3282442748091603,6.1679389312977095,34.459411764705884
-1.7080078125,0.865234375,-0.189208984375,0.03816793893129771,0.5572519083969466,8.427480916030534,35.16529411764706
-1.697021484375,0.93359375,-0.199462890625,0.3969465648854962,1.2290076335877862,4.206106870229007,35.16529411764706
-1.573486328125,1.013671875,-0.20263671875,1.3206106870229009,0.5114503816793893,10.13740458015267,34.506470588235295
-1.5712890625,0.8515625,-0.19921875,0.6793893129770993,1.3511450381679388,2.3282442748091605,35.16529411764706
-1.511962890625,0.9833984375,-0.1962890625,1.251908396946565,0.9618320610687023,8.282442748091603,34.41235294117647
-1.460205078125,0.84716796875,-0.19189453125,3.1068702290076335,0.5725190839694656,6.244274809160306,34.36529411764706
-1.353271484375,0.90771484375,-0.18994140625,1.4580152671755726,0.3816793893129771,6.526717557251908,34.459411764705884
-1.36376953125,0.930908203125,-0.196533203125,0.5267175572519084,0.3969465648854962,8.366412213740459,35.21235294117647
-1.142578125,0.964599609375,-0.201416015625,0.6106870229007634,0.9007633587786259,6.137404580152672,35.02411764705882
-1.052001953125,1.0078125,-0.194580078125,1.2595419847328244,0.05343511450381679,4.877862595419847,34.41235294117647
-1.1220703125,0.759765625,-0.190673828125,2.854961832061069,0.29770992366412213,0.5648854961832062,35.071176470588235
-0.978271484375,1.009765625,-0.187744140625,-1.5572519083969465,-0.030534351145038167,1.1755725190839694,35.25941176470588
-0.902587890625,0.846923828125,-0.19970703125,1.1450381679389312,1.717557251908397,8.16793893129771,34.41235294117647
-0.864990234375,0.94580078125,-0.201171875,1.4198473282442747,0.15267175572519084,2.4122137404580153,34.41235294117647
-0.60888671875,0.85400390625,-0.197998046875,1.6259541984732824,1.4961832061068703,-4.854961832061068,34.459411764705884
-0.53515625,1.023681640625,-0.201416015625,0.1450381679389313,0.6106870229007634,10.206106870229007,35.21235294117647
-0.43408203125,0.912109375,-0.1982421875,1.3282442748091603,0.21374045801526717,0.5114503816793893,34.506470588235295
-0.416748046875,0.838134765625,-0.200927734375,1.816793893129771,0.0,-3.7404580152671754,35.353529411764704
-0.2890625,1.03125,-0.19140625,1.4427480916030535,2.381679389312977,23.603053435114504,34.41235294117647
-0.02734375,0.972412109375,-0.19677734375,0.9847328244274809,-1.4961832061068703,14.916030534351146,34.41235294117647
0.08984375,0.939453125,-0.191162109375,0.32061068702290074,1.2366412213740459,20.061068702290076,34.459411764705884
0.201416015625,1.01904296875,-0.191650390625,-1.8931297709923665,1.83206106870229,-7.206106870229007,35.118235294117646
0.2294921875,0.948974609375,-0.202392578125,0.6030534351145038,1.282442748091603,10.580152671755725,35.30647058823529
0.36328125,0.772705078125,-0.197265625,-1.4198473282442747,2.83206106870229,11.702290076335878,35.96529411764706
0.393310546875,0.918212890625,-0.1962890625,0.007633587786259542,-1.8854961832061068,4.190839694656488,35.16529411764706
0.513671875,0.967041015625,-0.19677734375,-0.1450381679389313,1.465648854961832,5.305343511450381,34.506470588235295
0.6015625,0.8369140625,-0.1982421875,0.4580152671755725,-1.9694656488549618,20.66412213740458,34.41235294117647
0.77490234375,0.97412109375,-0.201904296875,-0.22900763358778625,3.687022900763359,0.3282442748091603,34.41235294117647
0.7041015625,0.905517578125,-0.1923828125,0.16030534351145037,-0.1297709923664122,10.679389312977099,35.21235294117647
0.923828125,0.8603515625,-0.194091796875,-1.8396946564885497,-0.09923664122137404,6.740458015267175,35.96529411764706
1.008544921875,1.13134765625,-0.199951171875,0.8931297709923665,1.1908396946564885,0.3511450381679389,34.36529411764706
1.12646484375,0.899169921875,-0.192138671875,0.48091603053435117,0.25190839694656486,-2.5343511450381677,35.118235294117646
1.08740234375,0.96533203125,-0.1923828125,1.6717557251908397,1.7404580152671756,0.816793893129771,33.75352941176471
1.164306640625,0.77685546875,-0.195556640625,-2.6946564885496183,-0.15267175572519084,-5.885496183206107,35.16529411764706
1.301513671875,1.007568359375,-0.1953125,0.7099236641221374,-1.6717557251908397,20.244274809160306,34.506470588235295
1.4873046875,0.935791015625,-0.201904296875,1.0305343511450382,0.32061068702290074,9.442748091603054,35.21235294117647
1.5126953125,1.02978515625,-0.196533203125,1.4580152671755726,-2.5801526717557253,3.8931297709923665,33.7064705882353
1.436279296875,0.897705078125,-0.19482421875,-1.2442748091603053,-0.7862595419847328,16.51145038167939,35.21235294117647
1.590576171875,0.9736328125,-0.193115234375,3.877862595419847,0.4732824427480916,10.717557251908397,34.36529411764706
1.55615234375,0.868896484375,-0.19482421875,0.19083969465648856,0.6412213740458015,-2.633587786259542,35.16529411764706
1.58447265625,0.794677734375,-0.20068359375,-0.4198473282442748,-0.5572519083969466,13.16793893129771,34.41235294117647
1.698486328125,0.9326171875,-0.197265625,0.7251908396946565,1.213740458015267,8.511450381679388,35.25941176470588
1.796875,1.037353515625,-0.18896484375,3.0916030534351147,0.3893129770992366,0.8854961832061069,34.41235294117647
1.669189453125,0.785888671875,-0.20166015625,0.3816793893129771,1.8549618320610688,8.274809160305344,35.25941176470588
1.740234375,0.994384765625,-0.189697265625,1.2290076335877862,0.366412213740458,6.320610687022901,34.27117647058824
1.7421875,0.86572265625,-0.200439453125,0.13740458015267176,1.8473282442748091,2.5572519083969465,35.21235294117647
1.687744140625,0.88671875,-0.197998046875,0.4732824427480916,0.7480916030534351,-5.312977099236641,35.118235294117646
1.717041015625,0.897705078125,-0.192626953125,1.83206106870229,1.2671755725190839,-3.099236641221374,34.41235294117647
1.7333984375,1.00244140625,-0.19140625,-0.7938931297709924,1.4427480916030535,2.2213740458015265,34.41235294117647
1.6337890625,0.93212890625,-0.19482421875,0.030534351145038167,1.1145038167938932,-3.5267175572519083,35.25941176470588
1.597412109375,0.91796875,-0.19970703125,0.2824427480916031,1.7557251908396947,0.366412213740458,35.30647058823529
1.55810546875,0.90234375,-0.1982421875,1.7099236641221374,1.6793893129770991,4.213740458015267,34.459411764705884
1.6396484375,0.94580078125,-0.18798828125,-1.3969465648854962,1.900763358778626,21.938931297709924,34.459411764705884
1.61474609375,0.95849609375,-0.19482421875,1.3511450381679388,0.7175572519083969,0.8702290076335878,34.459411764705884
1.539794921875,0.91162109375,-0.199951171875,0.40458015267175573,1.2442748091603053,2.9618320610687023,35.16529411764706
1.45849609375,0.82373046875,-0.187744140625,-0.12213740458015267,0.7022900763358778,-3.0839694656488548,35.25941176470588
1.359375,1.00341796875,-0.201904296875,1.297709923664122,-1.2900763358778626,15.610687022900763,34.41235294117647
1.3779296875,0.977294921875,-0.20263671875,0.7404580152671756,0.3282442748091603,-5.129770992366412,35.16529411764706
1.2021484375,0.9375,-0.2001953125,1.5114503816793894,0.7251908396946565,2.6412213740458017,33.7064705882353
1.104736328125,0.69091796875,-0.199951171875,0.015267175572519083,-5.648854961832061,-10.13740458015267,35.87117647058824
1.08837890625,1.049072265625,-0.20263671875,0.7099236641221374,1.2442748091603053,14.549618320610687,34.459411764705884
0.98876953125,0.736572265625,-0.19091796875,-1.3740458015267176,3.5267175572519083,3.0763358778625953,35.96529411764706
1.047607421875,1.05419921875,-0.1943359375,1.1603053435114503,0.6641221374045801,20.076335877862597,34.41235294117647
0.89208984375,0.8701171875,-0.197021484375,1.7938931297709924,4.778625954198473,-0.25190839694656486,34.506470588235295
0.713623046875,0.955078125,-0.188720703125,0.29770992366412213,-1.1450381679389312,5.938931297709924,35.16529411764706
0.5986328125,0.914794921875,-0.201904296875,-1.4427480916030535,1.5877862595419847,9.977099236641221,35.16529411764706
0.5400390625,0.9658203125,-0.190185546875,2.0916030534351147,2.0229007633587788,0.9847328244274809,35.21235294117647
0.49755859375,0.978759765625,-0.197509765625,1.2900763358778626,7.419847328244275,13.954198473282442,34.459411764705884
0.3583984375,0.965087890625,-0.193359375,1.5038167938931297,0.6946564885496184,11.366412213740459,34.459411764705884
0.2490234375,0.97265625,-0.19091796875,3.633587786259542,6.022900763358779,-0.12213740458015267,34.506470588235295
0.05810546875,0.8857421875,-0.200927734375,0.8244274809160306,0.2900763358778626,13.717557251908397,35.16529411764706
0.01806640625,0.890869140625,-0.18798828125,2.8473282442748094,-2.816793893129771,-5.358778625954199,34.506470588235295
-0.0908203125,0.852294921875,-0.19091796875,1.4732824427480915,2.3740458015267176,1.9236641221374047,35.16529411764706
-0.210205078125,0.95751953125,-0.193603515625,3.2900763358778624,-3.1068702290076335,3.687022900763359,34.41235294117647
-0.353759765625,0.98779296875,-0.19140625,0.6564885496183206,0.32061068702290074,3.3053435114503817,35.25941176470588
-0.572998046875,0.90234375,-0.201416015625,0.8396946564885496,1.3435114503816794,-12.603053435114504,35.118235294117646
-0.748779296875,0.770263671875,-0.198486328125,-1.0916030534351144,1.3511450381679388,8.580152671755725,35.118235294117646
-0.750244140625,1.029296875,-0.193115234375,0.916030534351145,0.2748091603053435,15.954198473282442,34.41235294117647
-0.72705078125,0.94189453125,-0.19873046875,1.2213740458015268,1.7099236641221374,13.038167938931299,34.31823529411765
-0.831298828125,0.968505859375,-0.19384765625,0.8854961832061069,0.8854961832061069,13.900763358778626,35.16529411764706
-0.917724609375,1.063720703125,-0.195068359375,0.2366412213740458,1.1755725190839694,7.847328244274809,34.41235294117647
-1.07470703125,0.866943359375,-0.20263671875,-1.7557251908396947,0.5801526717557252,-11.32824427480916,35.87117647058824
-1.402587890625,0.685546875,-0.189453125,1.9465648854961832,0.6030534351145038,12.580152671755725,35.118235294117646
-1.28369140625,0.881591796875,-0.190673828125,1.0381679389312977,1.3129770992366412,4.061068702290076,34.36529411764706
-1.330078125,0.958251953125,-0.19140625,0.4961832061068702,0.9389312977099237,6.236641221374046,35.21235294117647
-1.467529296875,0.978515625,-0.19677734375,0.9847328244274809,1.6641221374045803,6.290076335877862,34.506470588235295
-1.33447265625,0.877685546875,-0.1884765625,3.0229007633587788,0.4351145038167939,6.580152671755725,35.25941176470588
-1.50634765625,1.061279296875,-0.188232421875,-1.1068702290076335,1.9389312977099236,-7.419847328244275,34.41235294117647
-1.68359375,0.671142578125,-0.19580078125,1.5648854961832062,1.099236641221374,2.4198473282442747,35.21235294117647
-1.620849609375,1.15087890625,-0.19873046875,0.4351145038167939,0.8702290076335878,-1.3511450381679388,35.118235294117646
-1.788818359375,0.785888671875,-0.18798828125,1.786259541984733,0.9770992366412213,-3.4427480916030535,34.36529411764706
-1.7626953125,0.871337890625,-0.190185546875,-1.6870229007633588,1.4351145038167938,-1.5725190839694656,35.21235294117647
-1.76806640625,0.99853515625,-0.198486328125,1.1068702290076335,1.1526717557251909,-1.6641221374045803,34.41235294117647
-1.750732421875,0.89404296875,-0.192626953125,0.42748091603053434,0.11450381679389313,16.27480916030534,35.16529411764706
-1.76220703125,0.892578125,-0.1904296875,1.2748091603053435,1.4274809160305344,4.511450381679389,34.506470588235295
-1.71142578125,0.8916015625,-0.190673828125,1.8244274809160306,-1.7633587786259541,9.755725190839694,34.41235294117647
-1.78466796875,0.961181640625,-0.199462890625,0.20610687022900764,0.9923664122137404,6.076335877862595,35.21235294117647
-1.74072265625,0.87548828125,-0.197021484375,0.20610687022900764,1.5801526717557253,-1.5419847328244274,35.21235294117647
-1.7607421875,0.8876953125,-0.1884765625,-1.786259541984733,1.8091603053435115,12.030534351145038,35.21235294117647
-1.724609375,0.92578125,-0.197509765625,1.4351145038167938,0.46564885496183206,14.13740458015267,34.459411764705884
-1.71142578125,0.951416015625,-0.203125,0.4351145038167939,1.3282442748091603,4.572519083969466,35.16529411764706
-1.64208984375,1.030517578125,-0.1982421875,1.4580152671755726,0.24427480916030533,-1.1297709923664123,34.41235294117647
-1.656982421875,0.801513671875,-0.19189453125,0.10687022900763359,0.42748091603053434,2.404580152671756,35.16529411764706
-1.594970703125,0.907470703125,-0.197509765625,0.8015267175572519,1.3511450381679388,0.5267175572519084,34.41235294117647
-1.5947265625,0.905517578125,-0.200927734375,0.9389312977099237,1.2900763358778626,3.984732824427481,35.16529411764706
-1.42138671875,0.93017578125,-0.198486328125,0.6717557251908397,1.9083969465648856,10.534351145038167,34.459411764705884
-1.395751953125,0.839599609375,-0.195068359375,0.3893129770992366,1.1450381679389312,-7.648854961832061,35.118235294117646
-1.299072265625,0.9189453125,-0.189697265625,1.5419847328244274,0.6717557251908397,2.969465648854962,34.41235294117647
-1.196044921875,0.947265625,-0.191650390625,1.2900763358778626,1.4198473282442747,12.106870229007633,34.506470588235295
-1.109130859375,0.9580078125,-0.197265625,0.4580152671755725,1.297709923664122,6.068702290076335,35.16529411764706
-1.13232421875,0.72265625,-0.18994140625,-0.05343511450381679,1.381679389312977,3.7022900763358777,34.41235294117647
-0.922119140625,0.966796875,-0.197021484375,3.351145038167939,-1.1450381679389312,5.404580152671755,34.459411764705884
-0.75244140625,1.095703125,-0.199462890625,-0.05343511450381679,1.183206106870229,2.4198473282442747,34.459411764705884
-0.75634765625,0.818115234375,-0.202880859375,1.3740458015267176,1.1297709923664123,2.2519083969465647,34.459411764705884
-0.6640625,0.86962890625,-0.1904296875,1.6717557251908397,0.4122137404580153,2.1374045801526718,35.118235294117646
-0.568115234375,1.020263671875,-0.202880859375,1.8091603053435115,1.282442748091603,5.870229007633588,34.31823529411765
-0.40869140625,0.97998046875,-0.19775390625,1.1908396946564885,1.4427480916030535,15.65648854961832,34.41235294117647
-0.408935546875,0.926513671875,-0.19677734375,1.816793893129771,-1.717557251908397,7.786259541984733,34.41235294117647
-0.27587890625,0.8525390625,-0.192626953125,3.595419847328244,0.24427480916030533,4.587786259541985,34.41235294117647
-0.133056640625,1.006103515625,-0.193359375,1.549618320610687,-1.8473282442748091,5.763358778625954,34.459411764705884
0.0126953125,0.883056640625,-0.201171875,0.13740458015267176,1.3053435114503817,15.709923664122137,35.118235294117646
0.052734375,0.982177734375,-0.198974609375,-1.6717557251908397,1.3435114503816794,8.106870229007633,35.118235294117646
0.208740234375,0.904541015625,-0.198974609375,1.3893129770992367,1.450381679389313,9.908396946564885,34.506470588235295
0.314453125,0.987548828125,-0.199462890625,-1.6564885496183206,-3.198473282442748,15.541984732824428,35.91823529411765
0.454345703125,0.943115234375,-0.194091796875,0.015267175572519083,1.3969465648854962,12.618320610687023,35.16529411764706
0.54345703125,0.8955078125,-0.18896484375,1.3511450381679388,-0.7099236641221374,9.206106870229007,34.31823529411765
0.479736328125,0.901611328125,-0.199462890625,3.7938931297709924,-1.7557251908396947,3.7938931297709924,34.36529411764706
0.779296875,0.91796875,-0.198486328125,2.633587786259542,-1.9465648854961832,-3.8702290076335877,34.459411764705884
0.747314453125,0.91845703125,-0.194091796875,1.3053435114503817,4.091603053435114,0.6030534351145038,34.459411764705884
0.832763671875,0.853759765625,-0.1962890625,1.5419847328244274,1.900763358778626,-9.664122137404581,34.459411764705884
1.0546875,0.90869140625,-0.188720703125,0.4198473282442748,1.8396946564885497,-1.1374045801526718,35.16529411764706
1.073974609375,0.9248046875,-0.19873046875,1.5114503816793894,1.083969465648855,7.564885496183206,34.41235294117647
1.265625,0.890625,-0.19140625,-1.5267175572519085,0.4351145038167939,2.5267175572519083,35.071176470588235
1.2294921875,0.966796875,-0.1884765625,0.11450381679389313,-2.0610687022900764,-21.603053435114504,34.41235294117647
1.18115234375,0.86181640625,-0.19482421875,-0.8778625954198473,1.0763358778625953,-9.366412213740459,35.16529411764706
1.351318359375,0.626708984375,-0.188232421875,0.4732824427480916,-1.450381679389313,7.793893129770993,34.459411764705884
1.47314453125,0.8779296875,-0.191162109375,0.31297709923664124,0.3282442748091603,5.106870229007634,35.21235294117647
1.53173828125,1.025390625,-0.198486328125,0.6717557251908397,-1.1374045801526718,17.938931297709924,34.36529411764706
1.545654296875,0.81689453125,-0.1884765625,1.0534351145038168,1.1145038167938932,13.755725190839694,35.25941176470588
1.663818359375,1.0166015625,-0.188232421875,0.35877862595419846,0.6564885496183206,15.923664122137405,35.16529411764706
1.646484375,0.883544921875,-0.19384765625,-0.6335877862595419,1.8091603053435115,6.770992366412214,34.41235294117647
1.550048828125,0.8447265625,-0.189453125,1.099236641221374,1.2595419847328244,-1.4198473282442747,35.16529411764706
1.669677734375,0.96142578125,-0.19873046875,1.633587786259542,0.9312977099236641,-3.0076335877862594,34.55352941176471
1.713134765625,0.914794921875,-0.189453125,3.6717557251908395,0.29770992366412213,14.290076335877863,34.459411764705884
1.766845703125,1.030029296875,-0.191650390625,1.297709923664122,0.5801526717557252,-3.3053435114503817,34.459411764705884
1.709716796875,0.79736328125,-0.19873046875,1.7709923664122138,1.9312977099236641,4.641221374045801,34.41235294117647
1.690673828125,0.878662109375,-0.18896484375,0.030534351145038167,0.9847328244274809,-3.5114503816793894,35.16529411764706
1.74267578125,0.876220703125,-0.197265625,1.8396946564885497,0.09923664122137404,2.3587786259541983,34.41235294117647
1.75,0.99853515625,-0.199462890625,1.3282442748091603,0.4351145038167939,4.137404580152672,34.41235294117647
1.662353515625,0.885009765625,-0.1943359375,0.20610687022900764,1.8015267175572518,-1.3969465648854962,35.118235294117646
1.61669921875,0.99462890625,-0.196044921875,1.633587786259542,0.7175572519083969,-1.7099236641221374,34.459411764705884
1.580810546875,0.848388671875,-0.1904296875,1.3969465648854962,1.4351145038167938,7.961832061068702,34.459411764705884
1.626220703125,1.02978515625,-0.190673828125,0.46564885496183206,0.183206106870229,0.45038167938931295,34.459411764705884
1.503662109375,0.87109375,-0.19384765625,1.748091603053435,1.465648854961832,4.305343511450381,34.41235294117647
1.469482421875,0.79248046875,-0.188720703125,1.3435114503816794,0.25190839694656486,4.6106870229007635,35.25941176470588
1.473876953125,0.966796875,-0.1982421875,1.534351145038168,0.33587786259541985,2.480916030534351,34.506470588235295
1.44140625,0.89404296875,-0.19677734375,-1.5190839694656488,-1.2290076335877862,5.190839694656488,35.91823529411765
1.371337890625,0.994873046875,-0.202392578125,2.1297709923664123,0.7175572519083969,-3.0,34.36529411764706
1.13134765625,0.8310546875,-0.19580078125,1.2366412213740459,1.2748091603053435,2.1526717557251906,35.21235294117647
1.207275390625,0.914306640625,-0.190185546875,1.633587786259542,-0.3893129770992366,10.702290076335878,34.36529411764706
1.041259765625,0.97998046875,-0.20068359375,1.5725190839694656,-1.1526717557251909,13.549618320610687,34.41235294117647
1.0185546875,0.833984375,-0.191162109375,0.8244274809160306,-0.35877862595419846,14.786259541984732,35.16529411764706
0.9501953125,0.99560546875,-0.199951171875,-0.9389312977099237,3.4198473282442747,6.862595419847328,35.16529411764706
0.905517578125,0.890625,-0.189208984375,0.5572519083969466,1.6717557251908397,-2.595419847328244,35.25941176470588
0.7939453125,0.95361328125,-0.190185546875,-1.2748091603053435,-0.4122137404580153,9.366412213740459,35.16529411764706
0.559326171875,0.874755859375,-0.20068359375,3.4732824427480917,-1.5267175572519085,14.801526717557252,34.41235294117647
0.515380859375,0.858642578125,-0.1943359375,3.801526717557252,0.05343511450381679,-5.473282442748092,34.459411764705884
0.389892578125,0.89892578125,-0.190185546875,1.4961832061068703,8.48091603053435,4.870229007633588,35.21235294117647
0.21533203125,1.0087890625,-0.190185546875,0.40458015267175573,2.5267175572519083,16.053435114503817,34.506470588235295
0.232421875,0.942138671875,-0.20166015625,1.8778625954198473,1.916030534351145,-8.969465648854962,35.16529411764706
0.0068359375,0.868896484375,-0.18994140625,1.3206106870229009,2.2519083969465647,10.236641221374045,34.41235294117647
-0.0400390625,0.98193359375,-0.19921875,-0.022900763358778626,1.5419847328244274,2.450381679389313,34.41235294117647
-0.1337890625,1.045654296875,-0.190673828125,3.7938931297709924,3.053435114503817,8.98473282442748,34.459411764705884
-0.259033203125,0.82177734375,-0.201171875,0.15267175572519084,-2.8091603053435112,9.16793893129771,35.21235294117647
-0.28125,1.0771484375,-0.195556640625,1.1908396946564885,2.122137404580153,12.274809160305344,33.80058823529412
-0.456298828125,0.945068359375,-0.197998046875,-0.24427480916030533,0.8015267175572519,-17.022900763358777,35.21235294117647
-0.725341796875,0.889892578125,-0.188232421875,2.3053435114503817,-1.5801526717557253,3.4656488549618323,35.071176470588235
-0.65478515625,1.008056640625,-0.202880859375,-1.5572519083969465,-0.7938931297709924,19.213740458015266,34.506470588235295
-0.7744140625,0.815185546875,-0.191162109375,1.8091603053435115,0.9618320610687023,2.427480916030534,34.506470588235295
-0.885009765625,0.90283203125,-0.18896484375,0.2748091603053435,0.5877862595419847,-1.0687022900763359,35.21235294117647
-0.9599609375,0.990966796875,-0.200439453125,0.20610687022900764,1.2442748091603053,8.274809160305344,35.21235294117647
-1.11474609375,0.781005859375,-0.18994140625,-1.1297709923664123,-0.7099236641221374,15.13740458015267,35.30647058823529
-1.180908203125,0.980712890625,-0.19482421875,2.053435114503817,0.10687022900763359,25.793893129770993,35.21235294117647
-1.194580078125,1.079345703125,-0.197998046875,3.267175572519084,0.35877862595419846,-4.870229007633588,34.506470588235295
-1.361083984375,0.7109375,-0.202392578125,-1.633587786259542,-0.9618320610687023,19.46564885496183,35.25941176470588
-1.421630859375,0.8388671875,-0.194580078125,0.4580152671755725,0.3282442748091603,-2.3587786259541983,35.16529411764706
-1.3671875,1.1787109375,-0.195068359375,1.984732824427481,0.8549618320610687,4.297709923664122,35.25941176470588
-1.548583984375,1.012939453125,-0.19775390625,0.8015267175572519,1.6793893129770991,2.9770992366412212,34.36529411764706
-1.7080078125,0.626953125,-0.192138671875,0.5267175572519084,1.2442748091603053,-9.312977099236642,35.21235294117647
-1.66650390625,1.000244140625,-0.18994140625,-1.083969465648855,1.633587786259542,-1.4274809160305344,34.36529411764706
-1.748779296875,0.806884765625,-0.191650390625,1.4732824427480915,-0.2366412213740458,1.8854961832061068,35.118235294117646
-1.654052734375,0.95703125,-0.192626953125,-0.3511450381679389,1.4045801526717556,4.412213740458015,34.41235294117647
-1.72412109375,0.88720703125,-0.188232421875,0.48091603053435117,0.07633587786259542,9.893129770992367,35.16529411764706
-1.69677734375,1.061767578125,-0.199462890625,-1.5648854961832062,1.8473282442748091,12.16793893129771,35.16529411764706
-1.718017578125,0.92724609375,-0.19140625,1.2671755725190839,1.0,2.618320610687023,34.506470588235295
-1.843017578125,0.756103515625,-0.194091796875,0.648854961832061,0.9236641221374046,4.312977099236641,35.16529411764706
-1.752685546875,0.918701171875,-0.19482421875,0.9007633587786259,0.5114503816793893,9.793893129770993,34.459411764705884
-1.7705078125,0.81591796875,-0.19482421875,0.8702290076335878,1.099236641221374,0.22137404580152673,35.118235294117646
-1.697998046875,1.015869140625,-0.19140625,1.083969465648855,0.6564885496183206,13.992366412213741,34.41235294117647
-1.70361328125,0.8505859375,-0.190673828125,1.702290076335878,0.6259541984732825,5.984732824427481,34.41235294117647
-1.656005859375,1.040283203125,-0.19873046875,0.45038167938931295,0.31297709923664124,10.259541984732824,35.16529411764706
-1.63720703125,0.920654296875,-0.189208984375,1.5572519083969465,0.8320610687022901,4.603053435114504,34.41235294117647
-1.583251953125,0.9267578125,-0.188720703125,0.48091603053435117,0.5954198473282443,4.229007633587786,35.118235294117646
-1.603271484375,0.8232421875,-0.200439453125,1.297709923664122,0.6946564885496184,4.587786259541985,34.459411764705884
-1.5498046875,0.981689453125,-0.189697265625,0.2366412213740458,1.1068702290076335,0.40458015267175573,35.21235294117647
-1.451171875,0.89208984375,-0.197021484375,0.9083969465648855,1.816793893129771,10.351145038167939,34.459411764705884
-1.330810546875,1.018798828125,-0.197265625,1.7709923664122138,0.9847328244274809,0.6564885496183206,34.41235294117647
-1.363037109375,0.96240234375,-0.20263671875,3.6564885496183206,0.04580152671755725,19.80916030534351,34.506470588235295
-1.09130859375,0.988525390625,-0.19482421875,2.6412213740458017,0.183206106870229,18.091603053435115,34.31823529411765
-1.060546875,0.91748046875,-0.20263671875,1.7328244274809161,0.0,-13.13740458015267,34.506470588235295
-1.108642578125,0.837646484375,-0.1953125,0.07633587786259542,-1.2748091603053435,-4.343511450381679,35.21235294117647
-1.04248046875,0.9013671875,-0.1953125,-0.5725190839694656,1.4580152671755726,0.5954198473282443,35.118235294117646
-0.851806640625,0.9501953125,-0.191650390625,1.5801526717557253,-1.0305343511450382,13.564885496183207,34.36529411764706
-0.70361328125,0.9833984375,-0.19091796875,1.450381679389313,0.7404580152671756,0.4580152671755725,34.41235294117647
-0.72412109375,0.89990234375,-0.188232421875,3.3969465648854964,-1.4961832061068703,-4.106870229007634,34.31823529411765
-0.606201171875,0.869873046875,-0.191650390625,0.33587786259541985,1.1068702290076335,9.0,35.25941176470588
-0.4404296875,0.849365234375,-0.1923828125,0.4961832061068702,-1.6488549618320612,13.442748091603054,35.16529411764706
-0.320068359375,0.99658203125,-0.199951171875,0.21374045801526717,1.4122137404580153,9.801526717557252,35.02411764705882
-0.17333984375,1.109375,-0.189208984375,0.21374045801526717,1.2061068702290076,2.3740458015267176,35.118235294117646
-0.11376953125,0.855224609375,-0.192626953125,0.6641221374045801,1.6564885496183206,-7.366412213740458,34.459411764705884
-0.099853515625,0.79931640625,-0.2021484375,1.3740458015267176,0.2824427480916031,4.717557251908397,34.459411764705884
0.06103515625,0.99072265625,-0.199951171875,0.3511450381679389,0.5801526717557252,8.80916030534351,35.16529411764706
0.37060546875,0.9677734375,-0.200439453125,1.7404580152671756,-1.0458015267175573,9.106870229007633,34.506470588235295
0.33837890625,0.873779296875,-0.201416015625,1.618320610687023,2.6412213740458017,-0.44274809160305345,34.41235294117647
0.313720703125,0.6298828125,-0.1884765625,-2.450381679389313,-7.015267175572519,15.007633587786259,35.91823529411765
0.55126953125,0.900634765625,-0.20166015625,1.3206106870229009,1.702290076335878,-7.519083969465649,34.41235294117647
0.55029296875,0.7763671875,-0.193603515625,1.6106870229007633,4.595419847328245,10.061068702290076,35.21235294117647
0.773193359375,0.998779296875,-0.198974609375,0.2900763358778626,-8.549618320610687,4.679389312977099,33.7064705882353
0.890625,0.913818359375,-0.18896484375,0.9312977099236641,1.5877862595419847,9.251908396946565,34.36529411764706
0.859619140625,0.890869140625,-0.20166015625,3.4732824427480917,-1.3053435114503817,5.0,34.41235294117647
1.0625,0.959228515625,-0.19482421875,0.7251908396946565,2.3587786259541983,-3.068702290076336,35.16529411764706
1.098876953125,0.983154296875,-0.195068359375,1.3129770992366412,3.236641221374046,-2.954198473282443,34.41235294117647
1.18798828125,0.947021484375,-0.202880859375,-1.5572519083969465,-0.5877862595419847,-0.3893129770992366,35.21235294117647
1.0908203125,0.774169921875,-0.19970703125,0.42748091603053434,0.7557251908396947,0.5343511450381679,35.118235294117646
1.357421875,0.987548828125,-0.19091796875,-1.83206106870229,0.9618320610687023,0.45038167938931295,35.21235294117647
1.408935546875,0.997314453125,-0.1923828125,0.030534351145038167,-1.099236641221374,1.7786259541984732,34.36529411764706
1.463134765625,0.873779296875,-0.199462890625,0.37404580152671757,3.885496183206107,6.938931297709924,35.25941176470588
1.501220703125,0.798828125,-0.191162109375,-0.9541984732824428,-0.2748091603053435,11.335877862595419,34.506470588235295
1.56640625,0.854736328125,-0.19140625,0.4122137404580153,0.6030534351145038,4.320610687022901,35.16529411764706
1.775146484375,1.095458984375,-0.188720703125,0.061068702290076333,0.2900763358778626,14.687022900763358,35.071176470588235
1.642822265625,0.76025390625,-0.1962890625,0.33587786259541985,1.0916030534351144,-3.427480916030534,35.21235294117647
1.682373046875,0.915771484375,-0.187744140625,1.282442748091603,0.33587786259541985,15.923664122137405,34.459411764705884
1.611328125,0.7548828125,-0.19482421875,0.19083969465648856,1.4885496183206106,-4.793893129770993,35.16529411764706
1.694091796875,1.035400390625,-0.189697265625,2.4656488549618323,0.13740458015267176,12.458015267175572,35.16529411764706
1.781982421875,0.96435546875,-0.192138671875,1.213740458015267,1.2595419847328244,6.290076335877862,34.41235294117647
1.696044921875,0.894287109375,-0.18798828125,0.10687022900763359,0.9236641221374046,4.244274809160306,35.21235294117647
1.694091796875,0.909423828125,-0.2021484375,1.4122137404580153,0.9541984732824428,2.66412213740458,34.459411764705884
1.688232421875,0.94970703125,-0.201416015625,0.6106870229007634,1.8625954198473282,-1.366412213740458,35.118235294117646
1.735107421875,0.943115234375,-0.199462890625,-1.2366412213740459,1.4809160305343512,2.50381679389313,34.459411764705884
1.648193359375,0.82373046875,-0.202880859375,1.8625954198473282,0.8396946564885496,-1.6488549618320612,34.506470588235295
1.646728515625,0.87744140625,-0.190185546875,0.22137404580152673,1.2213740458015268,-1.5572519083969465,35.071176470588235
1.62841796875,0.979248046875,-0.202392578125,0.1297709923664122,0.26717557251908397,-1.6259541984732824,35.071176470588235
1.59765625,0.80126953125,-0.19775390625,0.24427480916030533,1.0687022900763359,7.862595419847328,35.16529411764706
1.590576171875,1.01318359375,-0.19287109375,-1.8625954198473282,1.6946564885496183,14.030534351145038,35.21235294117647
1.541748046875,0.84814453125,-0.19189453125,2.2900763358778624,0.8625954198473282,-3.351145038167939,35.118235294117646
1.422607421875,1.060546875,-0.192138671875,1.5877862595419847,0.10687022900763359,8.664122137404581,34.459411764705884
1.389892578125,0.7705078125,-0.188720703125,-1.8244274809160306,1.5725190839694656,-5.282442748091603,35.21235294117647
1.34033203125,0.919921875,-0.190673828125,-0.2595419847328244,0.7709923664122137,16.00763358778626,35.16529411764706
1.382568359375,1.07177734375,-0.19873046875,2.7404580152671754,2.519083969465649,-0.7633587786259542,34.41235294117647
1.149169921875,0.796630859375,-0.19580078125,-1.9083969465648856,0.5725190839694656,4.091603053435114,35.91823529411765
1.121826171875,0.89111328125,-0.1953125,0.5267175572519084,-1.8396946564885497,1.4274809160305344,34.41235294117647
0.92529296875,0.770263671875,-0.194580078125,1.0,2.312977099236641,-11.251908396946565,35.91823529411765
0.640380859375,0.65771484375,-0.19873046875,0.07633587786259542,0.24427480916030533,5.580152671755725,35.21235294117647
0.84423828125,0.947998046875,-0.197509765625,2.717557251908397,4.061068702290076,27.46564885496183,34.36529411764706
0.865234375,1.009765625,-0.201416015625,1.5190839694656488,3.2061068702290076,20.206106870229007,33.7064705882353
0.848876953125,1.049560546875,-0.1923828125,1.1450381679389312,-3.381679389312977,-6.931297709923665,35.16529411764706
0.488525390625,0.917236328125,-0.203125,0.42748091603053434,3.1297709923664123,-10.86259541984733,35.25941176470588
0.359130859375,0.7734375,-0.197021484375,0.6030534351145038,-3.1908396946564888,2.3587786259541983,35.16529411764706
0.2314453125,0.95263671875,-0.189208984375,0.2748091603053435,0.24427480916030533,20.206106870229007,35.21235294117647
0.130126953125,0.923583984375,-0.19189453125,0.916030534351145,5.2748091603053435,-0.9236641221374046,35.118235294117646
0.016357421875,0.970947265625,-0.203125,3.480916030534351,-5.343511450381679,9.267175572519085,33.7064705882353
-0.048828125,0.85546875,-0.197265625,-1.786259541984733,1.7099236641221374,-0.5038167938931297,35.21235294117647
-0.0595703125,1.0693359375,-0.19677734375,1.9236641221374047,-1.1221374045801527,9.15267175572519,34.506470588235295
-0.259033203125,0.98974609375,-0.198486328125,0.3816793893129771,2.4580152671755724,7.66412213740458,35.16529411764706
-0.29052734375,0.949462890625,-0.19482421875,3.7404580152671754,-1.5114503816793894,10.34351145038168,34.506470588235295
-0.43505859375,0.904052734375,-0.194580078125,-1.7557251908396947,-1.1221374045801527,-22.442748091603054,35.071176470588235
-0.704345703125,0.823974609375,-0.1953125,-1.2213740458015268,-1.213740458015267,7.099236641221374,35.21235294117647
-0.7529296875,0.8935546875,-0.192138671875,3.427480916030534,0.8473282442748091,12.908396946564885,34.459411764705884
-0.63818359375,0.85791015625,-0.1962890625,0.8396946564885496,-1.297709923664122,7.519083969465649,35.21235294117647
-0.843017578125,1.16064453125,-0.202392578125,1.9083969465648856,-1.2213740458015268,8.366412213740459,34.36529411764706
-0.994873046875,0.9052734375,-0.20068359375,0.9541984732824428,0.8091603053435115,2.404580152671756,35.16529411764706
-1.214599609375,0.7490234375,-0.197509765625,0.6335877862595419,-1.0687022900763359,3.6793893129770994,35.16529411764706
-1.1884765625,0.89599609375,-0.198486328125,1.702290076335878,0.6412213740458015,10.511450381679388,34.41235294117647
-1.241943359375,0.9794921875,-0.190673828125,1.1603053435114503,1.4580152671755726,13.931297709923664,34.41235294117647
-1.321533203125,0.9287109375,-0.190673828125,0.20610687022900764,1.3358778625954197,3.099236641221374,35.118235294117646
-1.384765625,0.82861328125,-0.190673828125,0.2900763358778626,0.5725190839694656,6.175572519083969,35.21235294117647
-1.38525390625,1.02490234375,-0.199951171875,1.1603053435114503,0.816793893129771,5.0458015267175576,34.36529411764706
-1.558837890625,0.800048828125,-0.19677734375,2.4580152671755724,0.06870229007633588,-5.206106870229007,35.21235294117647
-1.62890625,0.84814453125,-0.201416015625,0.42748091603053434,1.5038167938931297,4.900763358778626,35.16529411764706
-1.561767578125,0.98486328125,-0.19921875,0.8473282442748091,0.04580152671755725,3.969465648854962,35.16529411764706
-1.53955078125,1.00927734375,-0.19580078125,3.2977099236641223,0.015267175572519083,-7.213740458015267,34.41235294117647
-1.677978515625,0.89697265625,-0.188232421875,0.2748091603053435,0.33587786259541985,4.351145038167939,35.071176470588235
-1.744140625,0.88525390625,-0.1953125,1.1603053435114503,0.9465648854961832,7.969465648854962,34.41235294117647
-1.703369140625,0.91650390625,-0.1884765625,1.83206106870229,0.06870229007633588,-5.312977099236641,34.27117647058824
-1.7724609375,0.892822265625,-0.193359375,0.7709923664122137,0.3282442748091603,6.229007633587786,35.21235294117647
-1.792724609375,0.863037109375,-0.189453125,1.9389312977099236,0.4198473282442748,0.07633587786259542,34.506470588235295
-1.693359375,0.8935546875,-0.199462890625,0.4122137404580153,0.6564885496183206,4.183206106870229,35.25941176470588
-1.78271484375,0.943359375,-0.201416015625,1.6793893129770991,0.37404580152671757,7.893129770992366,34.41235294117647
-1.72314453125,0.89208984375,-0.195068359375,1.6259541984732824,0.7099236641221374,8.290076335877863,34.41235294117647
-1.75,0.882568359375,-0.190673828125,0.22900763358778625,1.6259541984732824,2.633587786259542,35.21235294117647
-1.699951171875,0.929931640625,-0.188720703125,1.3587786259541985,0.5801526717557252,6.5038167938931295,34.459411764705884
-1.677001953125,0.9658203125,-0.201904296875,0.5648854961832062,0.8854961832061069,8.198473282442748,35.21235294117647
-1.52685546875,1.00732421875,-0.1884765625,1.1526717557251909,1.1908396946564885,12.389312977099237,34.36529411764706
-1.514892578125,0.912353515625,-0.198974609375,1.6564885496183206,1.6870229007633588,2.1526717557251906,34.41235294117647
-1.53125,0.91015625,-0.19482421875,0.8549618320610687,0.1984732824427481,0.549618320610687,34.41235294117647
-1.44921875,0.735107421875,-0.190185546875,-1.7557251908396947,1.9465648854961832,2.145038167938931,35.25941176470588
-1.372314453125,0.95703125,-0.197509765625,1.1984732824427482,0.9541984732824428,-1.3206106870229009,34.36529411764706
-1.306884765625,0.9150390625,-0.1953125,0.42748091603053434,1.4122137404580153,8.068702290076336,35.21235294117647
-1.20458984375,0.9228515625,-0.1904296875,1.7328244274809161,0.9770992366412213,10.473282442748092,34.36529411764706
-1.228515625,0.8564453125,-0.197265625,0.5801526717557252,0.5725190839694656,4.488549618320611,35.118235294117646
-1.14990234375,0.943115234375,-0.19482421875,1.1068702290076335,-0.7022900763358778,1.8625954198473282,34.41235294117647
-1.01025390625,0.922607421875,-0.196044921875,1.083969465648855,1.3282442748091603,4.251908396946565,34.41235294117647
-0.910888671875,0.930908203125,-0.197998046875,1.0916030534351144,0.22900763358778625,-7.091603053435114,34.41235294117647
-0.821533203125,0.841064453125,-0.202392578125,0.4198473282442748,0.20610687022900764,27.984732824427482,35.16529411764706
-0.651611328125,0.984375,-0.1953125,1.1984732824427482,1.3969465648854962,-12.083969465648854,34.459411764705884
-0.607421875,0.782470703125,-0.195556640625,-1.6259541984732824,1.4427480916030535,14.198473282442748,35.21235294117647
-0.483154296875,0.9443359375,-0.198486328125,0.20610687022900764,0.9541984732824428,0.549618320610687,35.118235294117646
-0.276611328125,0.9873046875,-0.188720703125,2.3893129770992365,2.2290076335877864,11.870229007633588,35.21235294117647
-0.275146484375,1.01220703125,-0.19091796875,1.5419847328244274,-1.6030534351145038,1.534351145038168,34.41235294117647
-0.212890625,0.89990234375,-0.188232421875,3.633587786259542,-1.16793893129771,-0.3969465648854962,34.31823529411765
0.00146484375,0.978515625,-0.193603515625,1.83206106870229,1.618320610687023,6.1603053435114505,34.41235294117647
0.03173828125,0.932373046875,-0.1962890625,1.748091603053435,0.16793893129770993,8.595419847328245,34.41235294117647
0.119384765625,0.884521484375,-0.191162109375,1.702290076335878,6.305343511450381,11.083969465648854,34.41235294117647
0.382568359375,0.897705078125,-0.194580078125,0.9465648854961832,4.809160305343512,2.1297709923664123,34.36529411764706
0.38330078125,0.77490234375,-0.191650390625,0.03816793893129771,-3.7557251908396947,4.442748091603053,35.96529411764706
0.632080078125,0.963134765625,-0.190673828125,-1.0305343511450382,6.206106870229007,0.7938931297709924,35.16529411764706
0.5771484375,0.72509765625,-0.191162109375,-0.5801526717557252,-6.038167938931298,11.236641221374045,34.31823529411765
0.8173828125,1.25927734375,-0.19921875,3.2061068702290076,5.297709923664122,31.47328244274809,34.41235294117647
0.868896484375,0.901611328125,-0.187744140625,2.2290076335877864,1.2900763358778626,3.717557251908397,34.41235294117647
1.00537109375,1.0576171875,-0.191162109375,0.061068702290076333,-5.1679389312977095,5.1603053435114505,34.459411764705884
1.065673828125,0.860107421875,-0.193603515625,0.7251908396946565,7.396946564885496,-11.587786259541986,35.21235294117647
1.01904296875,0.919677734375,-0.1953125,0.7480916030534351,-0.8091603053435115,-3.969465648854962,35.118235294117646
1.174560546875,0.760009765625,-0.202392578125,0.32061068702290074,-1.3358778625954197,-7.740458015267175,35.21235294117647
1.20849609375,1.076904296875,-0.20166015625,-2.450381679389313,1.9465648854961832,4.549618320610687,34.41235294117647
1.259033203125,0.8544921875,-0.194580078125,1.5877862595419847,1.1908396946564885,2.2595419847328246,34.41235294117647
1.41064453125,0.95068359375,-0.202392578125,-1.7938931297709924,1.633587786259542,-1.0763358778625953,35.16529411764706
1.377685546875,0.82568359375,-0.190673828125,3.122137404580153,-1.9541984732824427,6.351145038167939,34.41235294117647
1.561279296875,1.036376953125,-0.196533203125,-0.24427480916030533,1.5725190839694656,8.419847328244275,34.459411764705884
1.5478515625,0.963623046875,-0.197265625,3.0381679389312977,0.2595419847328244,20.267175572519083,34.36529411764706
1.639892578125,0.8720703125,-0.202392578125,0.9236641221374046,-0.8320610687022901,15.625954198473282,35.118235294117646
1.714599609375,0.944580078125,-0.195556640625,-0.5267175572519084,1.015267175572519,9.091603053435115,34.41235294117647
1.7265625,0.869384765625,-0.2001953125,-1.4198473282442747,1.7251908396946565,2.618320610687023,35.16529411764706
1.70947265625,0.9189453125,-0.19140625,0.6106870229007634,1.5190839694656488,-7.122137404580153,35.16529411764706
1.693603515625,0.828369140625,-0.192138671875,0.8778625954198473,1.5419847328244274,6.198473282442748,35.16529411764706
1.672119140625,0.830322265625,-0.194580078125,1.7557251908396947,1.1374045801526718,-1.7328244274809161,34.55352941176471
1.676025390625,0.936767578125,-0.194091796875,1.1450381679389312,1.6641221374045803,6.1603053435114505,34.55352941176471
1.748779296875,0.9375,-0.19775390625,1.9618320610687023,0.7022900763358778,-1.2748091603053435,35.118235294117646
1.68994140625,0.942138671875,-0.201171875,0.9083969465648855,1.3129770992366412,0.648854961832061,34.459411764705884
1.718017578125,0.85888671875,-0.19970703125,1.5267175572519085,0.06870229007633588,2.2900763358778624,34.41235294117647
1.675048828125,0.915771484375,-0.200927734375,0.48854961832061067,0.5954198473282443,4.480916030534351,35.25941176470588
1.692626953125,1.005126953125,-0.199462890625,0.07633587786259542,1.0381679389312977,-3.3893129770992365,35.16529411764706
1.648681640625,0.958984375,-0.1953125,1.5038167938931297,0.2366412213740458,4.229007633587786,34.41235294117647
1.553466796875,0.91455078125,-0.202880859375,0.6335877862595419,-1.4351145038167938,13.65648854961832,34.41235294117647
1.638427734375,0.983154296875,-0.202880859375,0.3435114503816794,1.9465648854961832,4.076335877862595,35.118235294117646
1.4931640625,0.94677734375,-0.20263671875,1.7251908396946565,0.6412213740458015,10.312977099236642,34.459411764705884
1.46240234375,0.88671875,-0.192138671875,0.9007633587786259,1.251908396946565,14.251908396946565,34.36529411764706
1.405029296875,0.838134765625,-0.187744140625,-1.4351145038167938,3.1374045801526718,2.6717557251908395,35.25941176470588
1.36181640625,1.004150390625,-0.19482421875,0.8320610687022901,1.4809160305343512,9.099236641221374,34.506470588235295
1.209716796875,0.890380859375,-0.1884765625,0.04580152671755725,1.9923664122137406,5.870229007633588,35.91823529411765
1.154296875,1.11376953125,-0.194091796875,-1.534351145038168,-0.8931297709923665,3.5572519083969465,35.118235294117646
0.988037109375,0.845947265625,-0.199951171875,0.05343511450381679,1.3435114503816794,-0.12213740458015267,35.21235294117647
0.94775390625,1.06201171875,-0.19189453125,0.06870229007633588,2.763358778625954,20.755725190839694,35.30647058823529
0.87744140625,0.736572265625,-0.193115234375,0.6183206106870229,0.8778625954198473,16.12213740458015,35.21235294117647
0.86181640625,1.024169921875,-0.191650390625,0.1984732824427481,-3.213740458015267,15.259541984732824,35.25941176470588
0.819580078125,0.96875,-0.194580078125,1.099236641221374,0.6564885496183206,17.14503816793893,34.41235294117647
0.75634765625,0.9169921875,-0.188232421875,0.9847328244274809,1.3511450381679388,2.3206106870229006,35.16529411764706
0.547119140625,1.072021484375,-0.190185546875,0.3893129770992366,0.7251908396946565,3.7709923664122136,35.25941176470588
0.33447265625,0.81396484375,-0.193603515625,0.7099236641221374,-3.7022900763358777,3.366412213740458,35.118235294117646
0.2255859375,0.940673828125,-0.191162109375,0.8625954198473282,9.450381679389313,11.755725190839694,34.36529411764706
0.248779296875,0.91845703125,-0.18994140625,-1.5572519083969465,-0.3511450381679389,5.473282442748092,35.118235294117646
0.094482421875,0.9599609375,-0.1953125,0.9236641221374046,1.4351145038167938,-1.6717557251908397,34.459411764705884
-0.003662109375,0.772705078125,-0.18798828125,1.633587786259542,-3.3053435114503817,1.282442748091603,35.16529411764706
-0.103759765625,0.9931640625,-0.20166015625,2.6717557251908395,-1.7709923664122138,-0.366412213740458,34.41235294117647
-0.175048828125,0.942626953125,-0.19970703125,-0.9312977099236641,3.8244274809160306,-0.9083969465648855,35.16529411764706
-0.2392578125,1.01123046875,-0.1982421875,1.916030534351145,2.435114503816794,5.862595419847328,34.459411764705884
-0.4912109375,0.818359375,-0.200439453125,0.8396946564885496,-0.5343511450381679,-14.114503816793894,34.36529411764706
-0.573486328125,0.879150390625,-0.197021484375,-1.4198473282442747,0.29770992366412213,12.305343511450381,35.118235294117646
-0.5341796875,0.98828125,-0.194091796875,2.8702290076335877,-1.9541984732824427,-1.984732824427481,34.459411764705884
-0.758544921875,0.792236328125,-0.194091796875,0.6106870229007634,1.1374045801526718,-4.1603053435114505,35.25941176470588
-0.871826171875,0.899658203125,-0.19775390625,-1.213740458015267,-0.8091603053435115,25.221374045801525,35.16529411764706
-0.88525390625,1.051513671875,-0.1923828125,0.24427480916030533,-0.07633587786259542,15.32824427480916,35.16529411764706
-0.9912109375,0.981689453125,-0.188720703125,1.2061068702290076,0.916030534351145,1.450381679389313,35.16529411764706
-1.174560546875,0.8486328125,-0.18994140625,1.8778625954198473,0.6183206106870229,0.07633587786259542,34.41235294117647
-1.18115234375,0.86865234375,-0.196533203125,0.9465648854961832,0.9312977099236641,8.213740458015268,34.506470588235295
-1.201171875,1.0595703125,-0.19677734375,1.7328244274809161,0.8320610687022901,1.5267175572519085,34.459411764705884
-1.448974609375,0.975830078125,-0.200927734375,1.5114503816793894,1.6946564885496183,8.099236641221374,34.459411764705884
-1.502685546875,0.8388671875,-0.196044921875,-0.7709923664122137,0.9541984732824428,-0.366412213740458,35.071176470588235
-1.66357421875,0.901123046875,-0.199951171875,2.435114503816794,0.48091603053435117,8.083969465648854,35.16529411764706
-1.55859375,0.924560546875,-0.202880859375,0.5190839694656488,0.6412213740458015,-7.152671755725191,35.16529411764706
-1.691162109375,0.85888671875,-0.1982421875,1.7786259541984732,0.22137404580152673,-5.3816793893129775,34.41235294117647
-1.70654296875,0.904052734375,-0.195556640625,0.22137404580152673,1.2748091603053435,-1.465648854961832,35.118235294117646
-1.674560546875,1.0146484375,-0.197509765625,1.6106870229007633,0.8396946564885496,10.19083969465649,34.36529411764706
-1.734375,0.951171875,-0.19873046875,1.9465648854961832,1.6259541984732824,4.32824427480916,34.36529411764706
-1.790283203125,0.877197265625,-0.19287109375,-0.1297709923664122,1.6106870229007633,6.122137404580153,34.36529411764706
-1.780517578125,0.999755859375,-0.20263671875,0.08396946564885496,0.6870229007633588,0.32061068702290074,35.25941176470588
-1.7763671875,0.923095703125,-0.196044921875,0.16793893129770993,0.6183206106870229,0.4351145038167939,35.16529411764706
-1.751953125,0.836181640625,-0.19091796875,-1.8854961832061068,1.6030534351145038,6.213740458015267,35.16529411764706
-1.78076171875,0.9267578125,-0.191162109375,0.37404580152671757,0.7938931297709924,7.984732824427481,35.21235294117647
-1.724365234375,0.98046875,-0.190673828125,0.05343511450381679,0.8702290076335878,10.0,35.118235294117646
-1.720947265625,0.900390625,-0.1962890625,0.37404580152671757,1.3129770992366412,6.061068702290076,35.21235294117647
-1.626953125,0.929931640625,-0.197265625,1.2748091603053435,0.8702290076335878,4.458015267175573,34.459411764705884
-1.675537109375,0.930908203125,-0.19970703125,1.5572519083969465,1.2595419847328244,8.419847328244275,34.41235294117647
-1.65771484375,0.89697265625,-0.191650390625,1.4809160305343512,1.2595419847328244,2.7099236641221376,34.41235294117647
-1.640625,0.854736328125,-0.197265625,0.03816793893129771,0.9007633587786259,2.6564885496183206,35.16529411764706
-1.498291015625,1.026611328125,-0.19921875,0.9312977099236641,0.5954198473282443,8.198473282442748,34.41235294117647
-1.464599609375,0.88916015625,-0.19677734375,0.5725190839694656,0.33587786259541985,8.099236641221374,35.21235294117647
-1.41064453125,0.883544921875,-0.195068359375,0.061068702290076333,1.4045801526717556,9.931297709923664,35.02411764705882
-1.2705078125,0.88623046875,-0.200439453125,0.6030534351145038,0.7404580152671756,6.366412213740458,35.118235294117646
-1.174560546875,0.9990234375,-0.192138671875,3.3893129770992365,0.12213740458015267,-5.175572519083969,34.459411764705884
-1.212890625,0.98095703125,-0.2001953125,1.5877862595419847,1.9236641221374047,2.4732824427480917,34.506470588235295
-1.124267578125,0.876708984375,-0.201904296875,0.2900763358778626,0.9923664122137404,10.259541984732824,35.16529411764706
-0.990966796875,0.8779296875,-0.195068359375,-1.0916030534351144,1.7786259541984732,7.938931297709924,34.41235294117647
-1.008544921875,0.827880859375,-0.1982421875,0.1984732824427481,1.5954198473282444,7.870229007633588,35.25941176470588
-0.7744140625,1.07568359375,-0.194580078125,0.2595419847328244,-0.17557251908396945,-10.01526717557252,35.16529411764706
-0.6533203125,0.853759765625,-0.194091796875,-1.549618320610687,-1.8854961832061068,-4.419847328244275,35.21235294117647
-0.556396484375,0.8935546875,-0.189697265625,1.6946564885496183,0.648854961832061,1.5801526717557253,34.459411764705884
-0.485595703125,0.878173828125,-0.191650390625,0.6870229007633588,-2.931297709923664,1.5954198473282444,35.21235294117647
-0.336181640625,0.93798828125,-0.199462890625,0.31297709923664124,1.213740458015267,20.198473282442748,35.16529411764706
-0.15771484375,0.904541015625,-0.188232421875,0.6259541984732825,0.22137404580152673,9.511450381679388,34.41235294117647
-0.11962890625,0.972900390625,-0.189208984375,3.183206106870229,-0.5343511450381679,9.251908396946565,34.41235294117647
-0.024169921875,1.000732421875,-0.19482421875,-0.8244274809160306,-1.465648854961832,13.229007633587786,35.21235294117647
0.01708984375,0.86669921875,-0.194580078125,0.06870229007633588,3.4656488549618323,12.061068702290076,35.21235294117647
0.235107421875,1.163330078125,-0.191162109375,-0.3435114503816794,4.717557251908397,8.572519083969466,34.459411764705884
0.22119140625,0.84033203125,-0.1962890625,1.618320610687023,-5.2748091603053435,-8.541984732824428,35.118235294117646
0.402099609375,0.9140625,-0.193603515625,1.6946564885496183,3.030534351145038,28.229007633587788,34.41235294117647
0.5673828125,0.869140625,-0.19873046875,0.17557251908396945,7.312977099236641,-1.9236641221374047,35.16529411764706
0.695556640625,0.89306640625,-0.197021484375,1.0229007633587786,1.099236641221374,11.305343511450381,34.41235294117647
0.769287109375,1.0087890625,-0.19970703125,1.9236641221374047,4.015267175572519,-0.5954198473282443,34.41235294117647
0.797607421875,0.83740234375,-0.18798828125,0.5801526717557252,8.778625954198473,8.526717557251908,35.21235294117647
0.926513671875,0.999755859375,-0.195556640625,-0.3511450381679389,2.877862595419847,0.16030534351145037,34.36529411764706
0.97900390625,0.777099609375,-0.187744140625,3.053435114503817,-3.4122137404580153,3.3435114503816794,34.459411764705884
1.120361328125,0.882080078125,-0.1904296875,0.4351145038167939,-1.4809160305343512,-7.137404580152672,35.21235294117647
1.103515625,1.0107421875,-0.197998046875,-0.9618320610687023,7.312977099236641,8.419847328244275,35.071176470588235
1.1904296875,0.93798828125,-0.20263671875,0.6259541984732825,1.8244274809160306,-7.809160305343512,34.31823529411765
1.334228515625,0.944091796875,-0.20068359375,-0.916030534351145,0.9770992366412213,-0.7099236641221374,34.41235294117647
1.221435546875,0.818115234375,-0.193603515625,0.13740458015267176,1.099236641221374,1.1908396946564885,35.25941176470588
1.41845703125,0.880859375,-0.201416015625,1.8625954198473282,-1.1068702290076335,9.725190839694656,34.36529411764706
1.490234375,0.937744140625,-0.192626953125,-1.916030534351145,-0.0916030534351145,14.992366412213741,35.21235294117647
1.632568359375,0.92822265625,-0.2021484375,3.49618320610687,-1.8854961832061068,2.984732824427481,34.36529411764706
1.5634765625,0.893310546875,-0.202880859375,-0.007633587786259542,1.381679389312977,6.854961832061068,34.506470588235295
1.572998046875,0.71630859375,-0.19482421875,0.06870229007633588,1.16793893129771,4.465648854961832,35.071176470588235
1.631103515625,1.0546875,-0.190673828125,1.0763358778625953,0.1984732824427481,4.770992366412214,34.41235294117647
1.632568359375,0.874267578125,-0.2021484375,1.6717557251908397,1.8931297709923665,6.305343511450381,34.41235294117647
1.724365234375,1.06787109375,-0.19091796875,1.0534351145038168,1.2213740458015268,6.862595419847328,34.41235294117647
1.671875,0.8203125,-0.201171875,3.66412213740458,0.022900763358778626,-1.6793893129770991,34.506470588235295
1.73583984375,0.998046875,-0.1923828125,0.7557251908396947,0.10687022900763359,0.22137404580152673,35.118235294117646
1.651611328125,0.84423828125,-0.201416015625,0.15267175572519084,0.8320610687022901,0.4580152671755725,35.118235294117646
1.700439453125,0.908203125,-0.19873046875,0.061068702290076333,1.2748091603053435,2.267175572519084,35.16529411764706
1.66650390625,0.8662109375,-0.196533203125,1.465648854961832,0.5801526717557252,0.6335877862595419,34.41235294117647
1.744384765625,1.0712890625,-0.195068359375,0.9541984732824428,1.2900763358778626,6.5038167938931295,34.506470588235295
1.687255859375,0.8349609375,-0.188232421875,1.7557251908396947,1.6412213740458015,-5.488549618320611,34.31823529411765
1.635009765625,0.913330078125,-0.203125,0.7938931297709924,-1.251908396946565,5.648854961832061,35.118235294117646
1.5244140625,0.797607421875,-0.192138671875,-1.7099236641221374,1.7633587786259541,-3.572519083969466,35.21235294117647
1.510009765625,1.075439453125,-0.2021484375,-0.5877862595419847,1.0458015267175573,0.20610687022900764,35.21235294117647
1.395263671875,0.933349609375,-0.203125,1.2290076335877862,1.083969465648855,4.519083969465649,34.459411764705884
1.40771484375,1.008056640625,-0.195068359375,1.9618320610687023,0.022900763358778626,8.351145038167939,35.16529411764706
1.27490234375,0.764892578125,-0.191650390625,-0.40458015267175573,1.6717557251908397,-1.1908396946564885,34.31823529411765
1.2900390625,0.87646484375,-0.1982421875,0.8396946564885496,1.282442748091603,15.396946564885496,35.16529411764706
1.333984375,0.97265625,-0.200439453125,-1.6564885496183206,-0.26717557251908397,4.251908396946565,35.118235294117646
1.122802734375,0.8056640625,-0.20068359375,1.4427480916030535,1.282442748091603,-2.7938931297709924,35.30647058823529
1.170166015625,1.121337890625,-0.200439453125,-3.1755725190839694,5.557251908396947,22.114503816793892,34.459411764705884
0.97314453125,0.706298828125,-0.192138671875,0.45038167938931295,-2.8396946564885495,2.9236641221374047,34.36529411764706
0.846435546875,1.0986328125,-0.19482421875,-1.4122137404580153,3.7480916030534353,2.816793893129771,35.16529411764706
0.721435546875,0.76025390625,-0.200439453125,3.7709923664122136,5.938931297709924,2.5114503816793894,34.41235294117647
0.836181640625,1.080078125,-0.196044921875,-1.2748091603053435,-0.2366412213740458,8.603053435114504,35.16529411764706
0.728271484375,0.896240234375,-0.195556640625,1.6106870229007633,1.2595419847328244,13.206106870229007,34.506470588235295
0.562744140625,0.91455078125,-0.200927734375,0.8473282442748091,-7.290076335877862,3.0076335877862594,35.96529411764706
0.569580078125,1.010498046875,-0.19091796875,0.7786259541984732,3.717557251908397,-2.9160305343511452,34.459411764705884
0.306396484375,0.816650390625,-0.19677734375,0.0,0.25190839694656486,6.809160305343512,35.21235294117647
0.1982421875,0.832275390625,-0.200927734375,3.549618320610687,-1.8244274809160306,-4.0458015267175576,34.36529411764706
0.060546875,0.973876953125,-0.194091796875,-0.8320610687022901,3.732824427480916,14.557251908396946,35.16529411764706
0.054931640625,0.912109375,-0.193603515625,5.2748091603053435,-1.366412213740458,-5.450381679389313,33.65941176470589
-0.1611328125,0.869873046875,-0.19482421875,-1.3511450381679388,-3.0839694656488548,4.778625954198473,35.16529411764706
-0.18017578125,0.932373046875,-0.194091796875,0.07633587786259542,1.900763358778626,1.450381679389313,35.16529411764706
-0.35546875,0.91552734375,-0.19482421875,2.213740458015267,0.5114503816793893,-3.816793893129771,35.16529411764706
-0.57421875,0.8388671875,-0.200927734375,-0.25190839694656486,1.1374045801526718,6.083969465648855,34.36529411764706
-0.6513671875,0.91943359375,-0.200439453125,-1.9465648854961832,1.7786259541984732,5.00763358778626,35.118235294117646
-0.70703125,1.08740234375,-0.1904296875,3.2442748091603053,0.6564885496183206,11.946564885496183,34.506470588235295
-0.81640625,0.845458984375,-0.1943359375,1.9389312977099236,1.4580152671755726,-3.0610687022900764,35.071176470588235
-0.924072265625,0.904541015625,-0.193115234375,-1.9541984732824427,-0.7404580152671756,19.16793893129771,34.41235294117647
-0.94580078125,0.92041015625,-0.192626953125,0.7251908396946565,0.8244274809160306,-3.5343511450381677,35.16529411764706
-1.072021484375,0.98828125,-0.192138671875,0.3282442748091603,1.633587786259542,8.534351145038167,35.21235294117647
-1.232666015625,0.732177734375,-0.197021484375,0.24427480916030533,1.1984732824427482,10.053435114503817,35.21235294117647
-1.146240234375,0.974609375,-0.192138671875,0.7480916030534351,0.3816793893129771,4.702290076335878,34.36529411764706
-1.38134765625,0.931640625,-0.193359375,1.5801526717557253,0.4198473282442748,6.66412213740458,35.21235294117647
-1.419921875,0.900634765625,-0.188720703125,1.4427480916030535,1.4580152671755726,0.15267175572519084,34.31823529411765
-1.36376953125,0.93115234375,-0.192626953125,0.3282442748091603,0.8702290076335878,-0.8702290076335878,35.16529411764706
-1.635986328125,0.9521484375,-0.19091796875,2.83206106870229,0.3511450381679389,6.793893129770993,34.41235294117647
-1.58447265625,0.7841796875,-0.1953125,1.2061068702290076,0.916030534351145,0.7480916030534351,35.16529411764706
-1.626708984375,0.88623046875,-0.191162109375,0.5877862595419847,0.061068702290076333,-1.5572519083969465,35.118235294117646
-1.638916015625,1.035888671875,-0.19775390625,-1.7328244274809161,1.8015267175572518,2.519083969465649,35.21235294117647
-1.6669921875,0.96142578125,-0.189697265625,0.04580152671755725,1.0916030534351144,6.1679389312977095,35.118235294117646
-1.83544921875,0.880615234375,-0.194580078125,0.08396946564885496,0.3969465648854962,0.3053435114503817,35.118235294117646
-1.797119140625,0.891845703125,-0.198486328125,-1.9236641221374047,1.916030534351145,8.083969465648854,35.16529411764706
-1.736328125,1.0234375,-0.19482421875,0.8931297709923665,0.9312977099236641,4.251908396946565,34.41235294117647
-1.7900390625,0.866943359375,-0.19140625,0.3053435114503817,1.702290076335878,4.358778625954199,35.071176470588235
-1.745849609375,0.917724609375,-0.19140625,1.7404580152671756,0.7786259541984732,2.1603053435114505,34.36529411764706
-1.770263671875,0.90185546875,-0.19287109375,1.786259541984733,0.05343511450381679,9.770992366412214,34.36529411764706
-1.705322265625,0.90380859375,-0.187744140625,0.2366412213740458,1.0305343511450382,8.099236641221374,35.118235294117646
-1.731201171875,0.934814453125,-0.188232421875,1.7404580152671756,0.29770992366412213,8.099236641221374,34.36529411764706
-1.68359375,0.888427734375,-0.19189453125,-0.061068702290076333,1.633587786259542,6.32824427480916,34.41235294117647
-1.666015625,0.892822265625,-0.1962890625,0.2900763358778626,0.9236641221374046,4.450381679389313,35.16529411764706
-1.663818359375,0.939453125,-0.197998046875,1.8549618320610688,1.297709923664122,0.7099236641221374,34.41235294117647
-1.5810546875,0.943115234375,-0.199462890625,1.3511450381679388,1.1221374045801527,4.419847328244275,34.41235294117647
-1.541748046875,0.8828125,-0.20263671875,2.595419847328244,1.1603053435114503,10.236641221374045,34.41235294117647
-1.3857421875,1.0478515625,-0.19873046875,1.6488549618320612,1.450381679389313,0.29770992366412213,34.36529411764706
-1.390869140625,0.881103515625,-0.19140625,1.7251908396946565,1.2748091603053435,6.099236641221374,34.459411764705884
-1.411376953125,0.80517578125,-0.19921875,0.21374045801526717,1.4809160305343512,-7.251908396946565,35.21235294117647
-1.341552734375,0.89013671875,-0.19873046875,0.8015267175572519,0.7022900763358778,-3.3435114503816794,35.071176470588235
-1.0732421875,1.089111328125,-0.203125,0.6870229007633588,1.297709923664122,13.969465648854962,34.506470588235295
-0.886962890625,0.97314453125,-0.197021484375,-0.9694656488549618,0.7404580152671756,7.549618320610687,34.41235294117647
-0.95947265625,0.82177734375,-0.19970703125,3.8702290076335877,0.4351145038167939,-3.8625954198473282,34.506470588235295
-0.796142578125,0.94287109375,-0.188720703125,1.5038167938931297,0.916030534351145,16.229007633587788,34.36529411764706
-0.744873046875,0.77392578125,-0.190185546875,2.9083969465648853,-1.900763358778626,-0.4198473282442748,35.21235294117647
-0.731689453125,0.8173828125,-0.1923828125,-0.25190839694656486,1.1603053435114503,-5.473282442748092,34.459411764705884
-0.5400390625,0.919677734375,-0.19287109375,0.2748091603053435,1.4351145038167938,4.916030534351145,35.25941176470588
-0.44775390625,1.12255859375,-0.20263671875,3.6106870229007635,0.20610687022900764,-1.8702290076335877,34.41235294117647
-0.420654296875,0.7822265625,-0.198974609375,-1.16793893129771,1.4045801526717556,13.923664122137405,34.41235294117647
-0.26025390625,0.81787109375,-0.190185546875,1.8854961832061068,-0.732824427480916,15.396946564885496,34.506470588235295
-0.061767578125,1.1220703125,-0.202880859375,1.2290076335877862,-1.3511450381679388,-0.35877862595419846,34.27117647058824
-0.0361328125,0.87744140625,-0.193603515625,1.702290076335878,0.2748091603053435,12.198473282442748,34.459411764705884
0.178466796875,0.936767578125,-0.18798828125,-1.8244274809160306,1.1755725190839694,6.580152671755725,35.118235294117646
0.2724609375,0.908935546875,-0.196044921875,-0.0916030534351145,1.7328244274809161,2.6030534351145036,34.36529411764706
0.284912109375,0.929443359375,-0.18798828125,0.1450381679389313,2.7404580152671754,12.068702290076336,35.16529411764706
0.3359375,0.81591796875,-0.187744140625,2.0229007633587788,2.7557251908396947,-7.244274809160306,34.41235294117647
0.3583984375,0.614501953125,-0.19921875,-0.6870229007633588,-4.442748091603053,10.931297709923664,35.91823529411765
0.634765625,1.103271484375,-0.1962890625,3.2061068702290076,4.473282442748092,6.038167938931298,34.506470588235295
0.7314453125,0.972412109375,-0.18994140625,0.0,1.5725190839694656,0.9770992366412213,35.21235294117647
0.782470703125,0.922607421875,-0.199462890625,2.5801526717557253,-1.6870229007633588,7.870229007633588,34.36529411764706
0.9912109375,0.9580078125,-0.190185546875,1.297709923664122,-1.83206106870229,12.770992366412214,34.36529411764706
1.15966796875,0.960693359375,-0.19921875,0.7709923664122137,1.8625954198473282,-1.6030534351145038,35.21235294117647
1.0888671875,0.8076171875,-0.1923828125,1.4732824427480915,3.183206106870229,-10.442748091603054,34.41235294117647
1.12890625,0.719970703125,-0.194091796875,-0.3282442748091603,1.9389312977099236,4.458015267175573,35.16529411764706
1.302490234375,1.066162109375,-0.199462890625,1.6030534351145038,-0.03816793893129771,-0.8854961832061069,34.506470588235295
1.34228515625,1.117431640625,-0.18798828125,1.282442748091603,-1.1297709923664123,13.229007633587786,34.41235294117647
1.339111328125,0.95263671875,-0.2001953125,-0.5648854961832062,1.916030534351145,10.129770992366412,34.506470588235295
1.528076171875,1.07080078125,-0.20263671875,-0.6793893129770993,1.2290076335877862,-0.13740458015267176,34.36529411764706
1.41845703125,0.84814453125,-0.189697265625,-0.7404580152671756,-0.6564885496183206,7.564885496183206,35.21235294117647
1.542724609375,0.784423828125,-0.198974609375,0.816793893129771,1.3282442748091603,2.0076335877862594,35.071176470588235
1.58935546875,0.874267578125,-0.199951171875,-1.099236641221374,-0.0916030534351145,17.27480916030534,35.16529411764706
1.744140625,0.93115234375,-0.195068359375,0.6717557251908397,0.9847328244274809,6.595419847328245,34.41235294117647
1.7568359375,1.011474609375,-0.2021484375,0.022900763358778626,0.8473282442748091,11.045801526717558,35.071176470588235
1.69677734375,0.929443359375,-0.198486328125,3.145038167938931,0.022900763358778626,-5.137404580152672,34.459411764705884
1.655029296875,0.87353515625,-0.19384765625,0.25190839694656486,0.2824427480916031,10.419847328244275,35.118235294117646
1.656494140625,0.8837890625,-0.195556640625,1.083969465648855,1.4885496183206106,4.297709923664122,34.459411764705884
1.7314453125,0.866455078125,-0.199462890625,2.381679389312977,0.030534351145038167,4.580152671755725,35.118235294117646
1.724853515625,0.966552734375,-0.19091796875,1.6488549618320612,1.2213740458015268,6.030534351145038,34.506470588235295
1.7568359375,0.93603515625,-0.201171875,-0.04580152671755725,1.9312977099236641,0.4122137404580153,34.506470588235295
1.686279296875,0.95458984375,-0.19091796875,0.022900763358778626,0.816793893129771,-3.1068702290076335,35.16529411764706
1.6708984375,0.7978515625,-0.191650390625,2.687022900763359,0.42748091603053434,-3.3206106870229006,35.25941176470588
1.664794921875,0.936767578125,-0.200439453125,1.3893129770992367,0.16793893129770993,-1.251908396946565,34.36529411764706
1.619140625,0.9375,-0.2021484375,1.4122137404580153,0.22137404580152673,3.9236641221374047,34.459411764705884
1.60302734375,0.98779296875,-0.189697265625,0.48091603053435117,1.6030534351145038,2.2519083969465647,35.21235294117647
1.619140625,1.011474609375,-0.194091796875,-0.26717557251908397,1.7404580152671756,12.114503816793894,34.506470588235295
1.431640625,0.75,-0.200439453125,1.7786259541984732,0.3435114503816794,0.1984732824427481,34.41235294117647
1.391845703125,0.9755859375,-0.194580078125,1.8931297709923665,0.04580152671755725,2.717557251908397,34.41235294117647
1.31494140625,0.87060546875,-0.188720703125,1.8244274809160306,1.0229007633587786,-13.458015267175572,35.071176470588235
1.263427734375,1.0126953125,-0.195068359375,1.2671755725190839,1.083969465648855,6.778625954198473,34.459411764705884
1.22216796875,0.7548828125,-0.19189453125,0.2900763358778626,-0.916030534351145,5.3893129770992365,35.21235294117647
1.176513671875,1.033935546875,-0.191162109375,0.9465648854961832,1.1450381679389312,14.16793893129771,34.459411764705884
1.107177734375,0.798095703125,-0.192626953125,-0.22137404580152673,2.954198473282443,-0.6335877862595419,35.21235294117647
1.048583984375,0.953857421875,-0.1884765625,1.4732824427480915,1.1145038167938932,10.335877862595419,34.41235294117647
0.95556640625,0.861328125,-0.199462890625,1.5419847328244274,-1.4885496183206106,13.82442748091603,35.16529411764706
0.915283203125,1.11083984375,-0.189208984375,1.450381679389313,1.8625954198473282,6.221374045801527,34.41235294117647
0.74365234375,0.99462890625,-0.193603515625,0.9847328244274809,3.8702290076335877,-1.6641221374045803,35.25941176470588
0.5439453125,0.884033203125,-0.196044921875,1.0763358778625953,0.7938931297709924,11.16030534351145,34.506470588235295
0.411865234375,0.853759765625,-0.188720703125,-0.2595419847328244,-2.5267175572519083,-4.374045801526718,35.21235294117647
0.207275390625,0.9443359375,-0.190185546875,0.6259541984732825,3.236641221374046,6.534351145038168,35.21235294117647
0.30322265625,0.971435546875,-0.187744140625,3.053435114503817,4.015267175572519,7.770992366412214,34.36529411764706
0.1416015625,0.921142578125,-0.190185546875,1.3282442748091603,0.24427480916030533,2.0381679389312977,35.071176470588235
0.045166015625,0.93896484375,-0.199462890625,3.0229007633587788,1.3129770992366412,12.732824427480915,34.41235294117647
0.03369140625,0.98583984375,-0.194091796875,2.3053435114503817,0.04580152671755725,-7.679389312977099,35.25941176470588
-0.142578125,0.786376953125,-0.201904296875,0.19083969465648856,0.29770992366412213,-2.045801526717557,35.21235294117647
-0.296630859375,0.89501953125,-0.19775390625,1.618320610687023,-5.557251908396947,1.7709923664122138,34.459411764705884
-0.35400390625,1.036865234375,-0.1962890625,1.6106870229007633,-6.038167938931298,16.72519083969466,33.7064705882353
-0.539306640625,0.891357421875,-0.201416015625,0.8549618320610687,-2.9389312977099236,1.9083969465648856,35.21235294117647
-0.5439453125,0.963623046875,-0.203125,0.8091603053435115,0.33587786259541985,17.236641221374047,34.41235294117647
-0.5693359375,1.1474609375,-0.191650390625,-1.6870229007633588,-0.6870229007633588,1.16793893129771,35.16529411764706
-0.781982421875,0.873779296875,-0.19287109375,3.7099236641221376,0.4580152671755725,5.396946564885496,34.41235294117647
-0.85498046875,0.904541015625,-0.2001953125,0.6641221374045801,-1.6793893129770991,11.603053435114504,35.16529411764706
-1.050537109375,0.856689453125,-0.19921875,1.4045801526717556,0.3893129770992366,1.4809160305343512,34.459411764705884
-1.100830078125,0.832763671875,-0.191650390625,-0.15267175572519084,-0.24427480916030533,9.618320610687023,35.21235294117647
-1.217041015625,0.8330078125,-0.18798828125,0.2824427480916031,1.5190839694656488,4.648854961832061,35.21235294117647
-1.271240234375,0.92919921875,-0.202880859375,1.5648854961832062,0.6946564885496184,21.580152671755727,34.459411764705884
-1.325927734375,0.982666015625,-0.189697265625,1.8015267175572518,1.4274809160305344,22.778625954198475,34.459411764705884
-1.36474609375,1.103515625,-0.197509765625,1.3282442748091603,1.3740458015267176,-0.5343511450381679,34.41235294117647
-1.421630859375,0.8251953125,-0.19384765625,1.5267175572519085,1.4274809160305344,-1.6412213740458015,34.41235294117647
-1.568115234375,0.86767578125,-0.1953125,-1.0076335877862594,1.9312977099236641,-0.8625954198473282,35.071176470588235
-1.54541015625,1.0224609375,-0.195556640625,1.4885496183206106,-0.8244274809160306,13.244274809160306,35.16529411764706
-1.51220703125,1.043212890625,-0.19384765625,0.25190839694656486,-1.8702290076335877,8.679389312977099,35.30647058823529
-1.64453125,0.837158203125,-0.198486328125,-1.9236641221374047,1.8702290076335877,-2.801526717557252,35.118235294117646
-1.641845703125,0.970458984375,-0.20068359375,1.7633587786259541,-0.7862595419847328,3.786259541984733,34.41235294117647
-1.76123046875,0.99609375,-0.190673828125,1.1526717557251909,1.450381679389313,-5.3893129770992365,34.506470588235295
-1.839111328125,0.78369140625,-0.197998046875,1.4961832061068703,0.1984732824427481,-1.8702290076335877,34.506470588235295
-1.78515625,0.9033203125,-0.18896484375,1.3129770992366412,0.2824427480916031,13.923664122137405,34.41235294117647
-1.80126953125,0.996337890625,-0.196044921875,0.05343511450381679,0.022900763358778626,6.450381679389313,35.16529411764706
-1.724853515625,0.865234375,-0.201416015625,0.4351145038167939,1.251908396946565,-1.3053435114503817,35.16529411764706
-1.783935546875,0.90283203125,-0.201416015625,-1.6946564885496183,1.9236641221374047,4.221374045801527,35.21235294117647
-1.762939453125,0.933349609375,-0.199462890625,0.48854961832061067,0.9923664122137404,4.015267175572519,35.118235294117646
-1.7470703125,0.89501953125,-0.201171875,0.09923664122137404,0.916030534351145,4.221374045801527,35.16529411764706
-1.68896484375,0.8759765625,-0.198486328125,1.7786259541984732,1.534351145038168,10.244274809160306,34.41235294117647
-1.618408203125,0.965087890625,-0.203125,1.3740458015267176,0.6335877862595419,10.19083969465649,34.41235294117647
-1.532958984375,0.92431640625,-0.19921875,1.3893129770992367,1.4198473282442747,12.427480916030534,34.41235294117647
-1.53271484375,0.96875,-0.197265625,1.5190839694656488,1.8625954198473282,2.351145038167939,34.459411764705884
-1.480224609375,0.845947265625,-0.199951171875,-1.4045801526717556,1.7251908396946565,0.08396946564885496,35.21235294117647
-1.406982421875,0.9248046875,-0.19677734375,1.5877862595419847,1.450381679389313,5.923664122137405,34.36529411764706
-1.265380859375,1.0693359375,-0.19384765625,1.5419847328244274,1.2290076335877862,12.213740458015268,34.459411764705884
-1.3154296875,0.9365234375,-0.19873046875,3.4427480916030535,0.3893129770992366,4.343511450381679,34.60058823529412
-1.266845703125,0.85498046875,-0.200439453125,1.6030534351145038,0.549618320610687,0.2595419847328244,34.41235294117647
-1.204345703125,0.833984375,-0.203125,0.5648854961832062,0.8320610687022901,0.6030534351145038,35.16529411764706
-1.10205078125,0.96923828125,-0.199951171875,1.2671755725190839,1.0687022900763359,6.572519083969466,34.459411764705884
-1.06103515625,0.778564453125,-0.193603515625,-0.4961832061068702,1.5801526717557253,-3.427480916030534,35.118235294117646
-0.91455078125,0.946533203125,-0.195556640625,3.198473282442748,-1.083969465648855,25.236641221374047,34.459411764705884
-0.6953125,1.077880859375,-0.188720703125,-0.42748091603053434,-0.19083969465648856,-5.1603053435114505,34.36529411764706
-0.7666015625,0.769775390625,-0.190185546875,1.1908396946564885,0.5725190839694656,6.099236641221374,34.41235294117647
-0.573486328125,0.93408203125,-0.197509765625,1.9083969465648856,-3.450381679389313,-4.511450381679389,34.41235294117647
-0.5400390625,0.891357421875,-0.198486328125,3.2748091603053435,0.7709923664122137,4.083969465648855,34.41235294117647
-0.34619140625,0.926513671875,-0.188720703125,-1.16793893129771,1.0534351145038168,6.526717557251908,35.25941176470588
-0.248046875,0.896484375,-0.1923828125,-0.37404580152671757,1.450381679389313,6.3893129770992365,34.459411764705884
-0.114013671875,0.970458984375,-0.19482421875,0.8015267175572519,1.083969465648855,-1.282442748091603,35.21235294117647
-0.1044921875,0.96044921875,-0.196044921875,1.0763358778625953,-1.0,-1.4198473282442747,34.36529411764706
0.014892578125,0.84033203125,-0.198486328125,-0.11450381679389313,-0.15267175572519084,-0.9541984732824428,34.36529411764706
0.130859375,1.05322265625,-0.189208984375,0.12213740458015267,0.3816793893129771,16.396946564885496,34.31823529411765
0.24951171875,0.7861328125,-0.19140625,3.8244274809160306,-1.0229007633587786,0.2900763358778626,34.41235294117647
0.380615234375,0.93603515625,-0.192626953125,-0.6641221374045801,-2.5343511450381677,16.900763358778626,35.16529411764706
0.52587890625,0.83837890625,-0.188720703125,-0.3511450381679389,-3.0229007633587788,12.687022900763358,35.071176470588235
0.632568359375,0.965087890625,-0.198974609375,1.1068702290076335,0.2366412213740458,4.900763358778626,35.16529411764706
0.671630859375,0.95849609375,-0.20068359375,0.15267175572519084,1.1450381679389312,0.40458015267175573,35.21235294117647
0.904541015625,1.04443359375,-0.19775390625,0.42748091603053434,1.916030534351145,11.709923664122137,34.459411764705884
0.8935546875,0.873779296875,-0.1953125,1.1755725190839694,-1.7938931297709924,-0.9236641221374046,34.41235294117647
1.09814453125,0.8876953125,-0.188232421875,2.7251908396946565,-2.49618320610687,5.549618320610687,34.41235294117647
1.123046875,0.951904296875,-0.201171875,0.4122137404580153,-1.916030534351145,-6.236641221374046,35.16529411764706
1.205810546875,0.81884765625,-0.1953125,1.4122137404580153,0.732824427480916,-1.7404580152671756,34.506470588235295
1.335205078125,0.99169921875,-0.188720703125,1.8473282442748091,0.3893129770992366,3.816793893129771,34.459411764705884
1.311279296875,0.896484375,-0.189697265625,0.5725190839694656,-1.1984732824427482,-0.32061068702290074,35.118235294117646
1.3798828125,0.947265625,-0.201904296875,-1.6870229007633588,2.648854961832061,4.198473282442748,35.21235294117647
1.359375,0.798095703125,-0.18994140625,1.816793893129771,-4.916030534351145,1.0610687022900764,34.459411764705884
1.474609375,0.95849609375,-0.1962890625,0.7709923664122137,-1.4122137404580153,4.251908396946565,35.16529411764706
1.45166015625,0.832275390625,-0.19921875,3.1374045801526718,0.03816793893129771,14.49618320610687,34.506470588235295
1.698974609375,0.965087890625,-0.2001953125,-1.213740458015267,1.8091603053435115,14.076335877862595,35.071176470588235
1.59814453125,0.9111328125,-0.190673828125,0.9923664122137404,0.8854961832061069,-1.0916030534351144,34.41235294117647
1.634521484375,0.697998046875,-0.189453125,1.083969465648855,0.33587786259541985,10.572519083969466,35.21235294117647
1.78515625,1.010498046875,-0.196044921875,0.8473282442748091,1.8549618320610688,6.473282442748092,34.36529411764706
1.740966796875,0.928955078125,-0.195556640625,0.2900763358778626,0.7938931297709924,6.412213740458015,35.118235294117646
1.755126953125,1.06201171875,-0.1982421875,1.183206106870229,1.083969465648855,6.534351145038168,34.506470588235295
1.69873046875,0.79150390625,-0.19140625,2.8931297709923665,0.015267175572519083,-1.5572519083969465,35.16529411764706
1.707763671875,0.981689453125,-0.20068359375,1.5038167938931297,0.3893129770992366,2.2213740458015265,34.31823529411765
1.663330078125,0.85498046875,-0.201171875,0.17557251908396945,1.1603053435114503,-1.3511450381679388,35.16529411764706
1.713134765625,0.998291015625,-0.201904296875,1.6106870229007633,1.450381679389313,4.488549618320611,34.36529411764706
1.701416015625,0.80419921875,-0.202880859375,1.8854961832061068,0.816793893129771,-3.2442748091603053,34.36529411764706
1.6572265625,0.920166015625,-0.202392578125,1.4274809160305344,0.5419847328244275,6.251908396946565,34.459411764705884
1.645751953125,0.94482421875,-0.1943359375,0.29770992366412213,0.22137404580152673,6.091603053435114,35.118235294117646
1.637451171875,0.9375,-0.19287109375,1.7251908396946565,1.1374045801526718,3.931297709923664,34.41235294117647
1.5595703125,0.94775390625,-0.189697265625,1.6870229007633588,0.5419847328244275,0.2748091603053435,34.41235294117647
1.518798828125,0.89404296875,-0.1962890625,1.1526717557251909,1.0763358778625953,3.9923664122137406,34.41235294117647
1.43310546875,1.01416015625,-0.197021484375,-0.8854961832061069,0.9007633587786259,11.900763358778626,35.16529411764706
1.49365234375,0.763916015625,-0.201904296875,0.732824427480916,-0.4198473282442748,1.6793893129770991,35.16529411764706
1.2802734375,0.828125,-0.188720703125,-1.4274809160305344,1.5419847328244274,6.8396946564885495,35.21235294117647
1.193115234375,0.79345703125,-0.19287109375,2.786259541984733,-1.717557251908397,6.076335877862595,34.36529411764706
1.21142578125,1.040771484375,-0.194091796875,-1.702290076335878,-0.21374045801526717,1.4045801526717556,35.25941176470588
1.12451171875,0.910888671875,-0.195068359375,1.8854961832061068,3.6717557251908395,5.969465648854962,34.31823529411765
0.938232421875,0.916259765625,-0.20166015625,1.0076335877862594,0.10687022900763359,10.244274809160306,35.16529411764706
0.852294921875,0.72998046875,-0.1962890625,1.7938931297709924,-0.07633587786259542,12.282442748091603,34.41235294117647
0.79345703125,1.013427734375,-0.193115234375,-0.25190839694656486,-0.007633587786259542,7.633587786259542,34.459411764705884
0.697021484375,0.81689453125,-0.200927734375,2.0763358778625953,-5.702290076335878,13.244274809160306,35.21235294117647
0.630859375,0.891845703125,-0.203125,-1.3358778625954197,3.8931297709923665,1.4809160305343512,35.96529411764706
0.463623046875,1.01171875,-0.189697265625,0.6793893129770993,1.2748091603053435,6.541984732824427,34.36529411764706
0.422119140625,0.965087890625,-0.190673828125,-0.9923664122137404,0.7938931297709924,3.6030534351145036,35.071176470588235
0.242919921875,0.8486328125,-0.197021484375,3.3969465648854964,2.8625954198473282,0.5877862595419847,34.41235294117647
0.235107421875,0.938232421875,-0.1904296875,0.8931297709923665,-0.549618320610687,-0.07633587786259542,35.16529411764706
0.059326171875,0.891357421875,-0.197021484375,2.3969465648854964,-1.8091603053435115,16.740458015267176,34.41235294117647
0.067626953125,0.804931640625,-0.1962890625,-2.145038167938931,-4.122137404580153,-7.152671755725191,35.118235294117646
-0.1650390625,1.05078125,-0.201171875,2.236641221374046,8.221374045801527,3.83206106870229,34.36529411764706
-0.29345703125,0.713134765625,-0.2001953125,-0.16030534351145037,-2.3206106870229006,5.106870229007634,35.118235294117646
-0.30810546875,0.875,-0.202392578125,0.8091603053435115,0.21374045801526717,5.511450381679389,34.506470588235295
-0.44287109375,1.010498046875,-0.202392578125,0.1450381679389313,3.50381679389313,4.419847328244275,35.16529411764706
-0.57666015625,1.0322265625,-0.191650390625,1.2671755725190839,-1.3282442748091603,17.48854961832061,35.16529411764706
-0.65576171875,0.900634765625,-0.19677734375,0.5114503816793893,1.2748091603053435,6.183206106870229,34.41235294117647
-0.776611328125,0.9619140625,-0.20263671875,-0.6412213740458015,0.6412213740458015,6.358778625954199,35.118235294117646
-0.866943359375,0.950927734375,-0.202392578125,0.29770992366412213,0.5648854961832062,19.908396946564885,35.118235294117646
-0.921630859375,0.91796875,-0.1904296875,1.2213740458015268,1.7251908396946565,4.847328244274809,35.21235294117647
-0.98974609375,0.94482421875,-0.193359375,0.8625954198473282,0.10687022900763359,6.122137404580153,35.118235294117646
-1.22509765625,0.937255859375,-0.18896484375,1.3587786259541985,-0.1984732824427481,5.6183206106870225,34.41235294117647
-1.204345703125,0.84521484375,-0.202392578125,-0.42748091603053434,1.3358778625954197,13.541984732824428,35.16529411764706
-1.333740234375,0.89794921875,-0.19677734375,3.450381679389313,-1.5267175572519085,-0.3435114503816794,33.65941176470589
-1.492431640625,0.8583984375,-0.190185546875,1.099236641221374,0.03816793893129771,13.51908396946565,35.16529411764706
-1.3818359375,1.072509765625,-0.200439453125,3.5267175572519083,2.49618320610687,10.465648854961833,34.506470588235295
-1.516357421875,0.83740234375,-0.188232421875,1.3893129770992367,0.6946564885496184,-6.99236641221374,35.118235294117646
-1.57470703125,1.0673828125,-0.1884765625,1.8549618320610688,0.9389312977099237,5.862595419847328,34.36529411764706
-1.652587890625,0.92529296875,-0.197998046875,1.099236641221374,1.2900763358778626,-0.6412213740458015,34.41235294117647
-1.65966796875,0.876953125,-0.19189453125,0.7480916030534351,-0.46564885496183206,-3.984732824427481,35.16529411764706
-1.739013671875,0.889892578125,-0.19091796875,-0.48854961832061067,1.2213740458015268,10.045801526717558,34.41235294117647
-1.78125,0.87158203125,-0.193359375,0.48854961832061067,1.2900763358778626,-3.4656488549618323,35.16529411764706
-1.67626953125,1.06787109375,-0.2001953125,-0.6793893129770993,1.6412213740458015,12.145038167938932,34.36529411764706
-1.760986328125,0.821044921875,-0.189208984375,1.8396946564885497,1.2366412213740459,2.572519083969466,34.459411764705884
-1.744140625,1.03076171875,-0.189208984375,0.46564885496183206,0.8015267175572519,4.213740458015267,35.21235294117647
-1.842529296875,0.804443359375,-0.19091796875,1.5190839694656488,0.3435114503816794,4.213740458015267,34.27117647058824
-1.734619140625,0.882080078125,-0.203125,0.16030534351145037,0.7022900763358778,4.312977099236641,35.16529411764706
-1.711669921875,0.93798828125,-0.1884765625,1.6030534351145038,1.1450381679389312,6.061068702290076,34.41235294117647
-1.73681640625,0.913818359375,-0.191650390625,0.4351145038167939,0.5801526717557252,4.3816793893129775,35.25941176470588
-1.677978515625,0.98291015625,-0.190185546875,1.6717557251908397,0.4351145038167939,10.19083969465649,34.41235294117647
-1.6357421875,0.885986328125,-0.1982421875,1.4351145038167938,0.7099236641221374,4.6106870229007635,34.459411764705884
-1.622802734375,0.90673828125,-0.1982421875,1.633587786259542,0.549618320610687,2.427480916030534,34.459411764705884
-1.631103515625,0.842041015625,-0.189697265625,1.8702290076335877,1.1297709923664123,0.2595419847328244,34.36529411764706
-1.54052734375,0.909912109375,-0.19287109375,0.11450381679389313,1.0381679389312977,4.198473282442748,35.118235294117646
-1.467529296875,0.879150390625,-0.200927734375,0.3511450381679389,1.4885496183206106,12.19083969465649,35.16529411764706
-1.3427734375,1.074462890625,-0.2021484375,2.6259541984732824,0.24427480916030533,6.152671755725191,34.31823529411765
-1.3330078125,0.98828125,-0.202880859375,2.49618320610687,0.40458015267175573,8.687022900763358,34.41235294117647
-1.239501953125,0.836181640625,-0.202880859375,-0.816793893129771,1.5267175572519085,7.969465648854962,35.21235294117647
-1.082763671875,0.934326171875,-0.19580078125,1.1526717557251909,0.549618320610687,-2.7022900763358777,34.459411764705884
-1.045654296875,0.935546875,-0.19970703125,0.25190839694656486,0.6564885496183206,-1.4732824427480915,35.21235294117647
-1.0009765625,0.92724609375,-0.18994140625,1.297709923664122,1.3358778625954197,-5.66412213740458,34.36529411764706
-0.96875,0.8115234375,-0.197998046875,-1.3587786259541985,1.748091603053435,16.076335877862597,35.071176470588235
-0.7607421875,1.015625,-0.199462890625,0.4122137404580153,0.44274809160305345,6.740458015267175,34.31823529411765
-0.777099609375,0.86328125,-0.199462890625,0.5343511450381679,-1.1450381679389312,5.694656488549619,35.071176470588235
-0.65576171875,1.071044921875,-0.19873046875,3.5572519083969465,0.10687022900763359,4.297709923664122,34.31823529411765
-0.502197265625,1.00830078125,-0.197021484375,1.0076335877862594,-0.816793893129771,5.854961832061068,34.41235294117647
-0.349365234375,0.99560546875,-0.201171875,1.450381679389313,0.5648854961832062,-1.6564885496183206,34.459411764705884
-0.253662109375,0.889892578125,-0.195556640625,1.0381679389312977,1.6030534351145038,15.694656488549619,35.118235294117646
-0.15771484375,1.086181640625,-0.1884765625,-0.022900763358778626,1.7938931297709924,8.221374045801527,34.459411764705884
0.062255859375,0.988037109375,-0.195556640625,1.1297709923664123,1.0229007633587786,6.1679389312977095,34.31823529411765
0.06640625,1.020751953125,-0.19384765625,0.5190839694656488,0.15267175572519084,6.648854961832061,35.16529411764706
0.190673828125,0.775634765625,-0.19921875,2.9770992366412212,-1.8778625954198473,-7.977099236641221,34.506470588235295
0.29736328125,0.876708984375,-0.200439453125,0.3816793893129771,0.3435114503816794,2.2595419847328246,35.21235294117647
0.449951171875,0.935791015625,-0.199951171875,1.5877862595419847,2.687022900763359,15.954198473282442,34.36529411764706
0.59765625,0.879638671875,-0.192626953125,0.5572519083969466,2.801526717557252,11.83969465648855,35.21235294117647
0.580810546875,0.920654296875,-0.20263671875,0.030534351145038167,-0.3816793893129771,5.809160305343512,35.118235294117646
0.7373046875,0.992431640625,-0.200927734375,1.748091603053435,-0.5725190839694656,7.770992366412214,33.75352941176471
0.870849609375,1.02490234375,-0.19970703125,-1.816793893129771,5.984732824427481,6.511450381679389,35.16529411764706
0.91552734375,0.7666015625,-0.19287109375,1.0229007633587786,2.2900763358778624,-0.8702290076335878,35.16529411764706
1.063232421875,0.97265625,-0.189453125,-1.3435114503816794,-0.648854961832061,-4.083969465648855,35.16529411764706
1.108154296875,0.915771484375,-0.190185546875,1.083969465648855,-3.1068702290076335,-1.2366412213740459,34.459411764705884
1.015869140625,0.80810546875,-0.198486328125,-0.26717557251908397,-2.1755725190839694,-0.6717557251908397,35.21235294117647
1.198974609375,0.9375,-0.1904296875,1.534351145038168,-4.587786259541985,-1.5725190839694656,33.7064705882353
1.256103515625,0.9619140625,-0.19091796875,0.19083969465648856,2.5419847328244276,7.99236641221374,35.21235294117647
1.384521484375,0.903564453125,-0.19775390625,0.6335877862595419,0.2900763358778626,10.557251908396946,34.41235294117647
1.463623046875,0.90966796875,-0.19091796875,-0.32061068702290074,-0.3282442748091603,11.34351145038168,34.31823529411765
1.534423828125,0.93798828125,-0.201904296875,0.7480916030534351,0.7557251908396947,1.1068702290076335,35.16529411764706
1.570068359375,1.07080078125,-0.194091796875,1.5801526717557253,3.0610687022900764,2.0763358778625953,34.55352941176471
1.654296875,0.81591796875,-0.19580078125,0.007633587786259542,-1.3206106870229009,12.679389312977099,35.118235294117646
1.578125,0.861572265625,-0.194091796875,1.297709923664122,0.7786259541984732,6.557251908396947,34.459411764705884
1.62744140625,0.788330078125,-0.197998046875,1.6717557251908397,0.9541984732824428,16.625954198473284,35.16529411764706
1.8037109375,1.14697265625,-0.200927734375,2.2442748091603053,0.2748091603053435,6.748091603053435,34.36529411764706
