accelerationX,accelerationY,accelerationZ,gyroscopeX,gyroscopeY,gyroscopeZ,Temperature
1.64208984375,1.102294921875,0.13330078125,2.2213740458015265,-0.183206106870229,-1.9389312977099236,40.71823529411765
1.669189453125,1.07470703125,0.125732421875,2.435114503816794,-2.4580152671755724,-1.9694656488549618,40.906470588235294
1.600830078125,1.076171875,0.13720703125,2.7786259541984735,-2.50381679389313,-0.2900763358778626,40.76529411764706
1.643798828125,1.058349609375,0.138427734375,3.427480916030534,-2.8091603053435112,-2.1068702290076335,40.76529411764706
1.489501953125,1.041748046875,0.1279296875,2.198473282442748,-3.2900763358778624,1.7786259541984732,40.671176470588236
1.4609375,1.077880859375,0.128662109375,2.732824427480916,-3.6106870229007635,-6.00763358778626,40.71823529411765
1.421142578125,0.96240234375,0.1328125,2.9083969465648853,-3.198473282442748,5.6183206106870225,40.906470588235294
1.4130859375,1.038818359375,0.15185546875,0.45038167938931295,-2.3282442748091605,19.206106870229007,40.341764705882355
1.35498046875,1.11279296875,0.1328125,2.114503816793893,-3.2519083969465647,-11.969465648854962,40.85941176470588
1.1279296875,1.06982421875,0.1396484375,0.9007633587786259,-0.007633587786259542,-1.6946564885496183,40.85941176470588
1.123291015625,1.030029296875,0.13232421875,3.6793893129770994,-3.49618320610687,7.641221374045801,40.71823529411765
1.347412109375,1.175048828125,0.129150390625,2.9923664122137406,-0.2748091603053435,-25.16030534351145,40.85941176470588
0.821044921875,0.940185546875,0.1298828125,3.786259541984733,-2.0610687022900764,21.16793893129771,39.96529411764706
0.9814453125,1.17626953125,0.14111328125,3.3206106870229006,-2.145038167938931,15.34351145038168,40.341764705882355
1.07421875,1.1552734375,0.14013671875,3.3969465648854964,-1.0381679389312977,3.9083969465648853,40.1064705882353
0.797607421875,1.0029296875,0.12939453125,3.16793893129771,-3.5267175572519083,-21.908396946564885,40.71823529411765
0.29541015625,0.833984375,0.125,2.8702290076335877,-3.1603053435114505,21.236641221374047,40.71823529411765
0.729736328125,1.202880859375,0.126220703125,2.1297709923664123,-1.5190839694656488,-29.31297709923664,41.42411764705882
0.48095703125,0.939208984375,0.12939453125,3.2061068702290076,-3.900763358778626,17.480916030534353,40.71823529411765
0.2451171875,1.021484375,0.134521484375,2.2061068702290076,-1.9770992366412214,15.404580152671755,40.76529411764706
0.192138671875,1.18115234375,0.137451171875,5.152671755725191,-3.900763358778626,-29.557251908396946,41.518235294117645
0.164794921875,0.64306640625,0.146240234375,5.572519083969466,-2.7480916030534353,19.0,39.58882352941177
0.046875,1.390380859375,0.132568359375,4.419847328244275,-3.16793893129771,5.480916030534351,40.906470588235294
-0.335693359375,0.822998046875,0.1328125,1.5114503816793894,-3.0,-25.435114503816795,41.47117647058823
-0.156005859375,1.037841796875,0.135009765625,2.4580152671755724,-0.5114503816793893,21.580152671755727,40.906470588235294
-0.22998046875,1.232177734375,0.151611328125,3.4732824427480917,-3.854961832061069,-0.46564885496183206,40.29470588235294
-0.64501953125,0.839599609375,0.135498046875,3.633587786259542,-2.9083969465648853,19.3206106870229,40.906470588235294
-0.542724609375,1.042724609375,0.1396484375,0.916030534351145,-2.236641221374046,-17.770992366412212,40.76529411764706
-0.67919921875,0.79443359375,0.128662109375,2.351145038167939,-3.7786259541984735,-2.3969465648854964,40.76529411764706
-0.91650390625,0.859375,0.13232421875,2.519083969465649,-0.816793893129771,0.0916030534351145,41.42411764705882
-0.614013671875,1.46435546875,0.13232421875,1.9694656488549618,-0.9389312977099237,-13.488549618320612,41.65941176470589
-1.279541015625,0.758544921875,0.139404296875,2.8625954198473282,-2.33587786259542,31.015267175572518,40.012352941176474
-0.7724609375,1.224609375,0.129638671875,3.030534351145038,-3.7709923664122136,-4.251908396946565,40.906470588235294
-1.17626953125,0.849853515625,0.127197265625,1.1145038167938932,-2.2442748091603053,17.480916030534353,41.42411764705882
-1.430908203125,0.959228515625,0.127685546875,4.702290076335878,-3.366412213740458,-0.19083969465648856,40.012352941176474
-1.027099609375,1.007568359375,0.127197265625,0.6030534351145038,-3.312977099236641,-17.603053435114504,40.85941176470588
-1.479248046875,0.869384765625,0.128173828125,3.0610687022900764,-2.4198473282442747,11.603053435114504,40.76529411764706
-1.36865234375,0.9208984375,0.125,1.450381679389313,-3.801526717557252,-21.65648854961832,41.65941176470589
-1.67333984375,0.923583984375,0.131591796875,7.183206106870229,-2.66412213740458,9.648854961832061,39.400588235294116
-1.333251953125,1.132080078125,0.13818359375,0.6870229007633588,-2.3969465648854964,11.511450381679388,41.61235294117647
-1.87548828125,0.895751953125,0.13671875,0.6335877862595419,-1.984732824427481,-9.801526717557252,40.906470588235294
-1.560791015625,1.121826171875,0.131103515625,4.9541984732824424,-1.83206106870229,-5.8396946564885495,40.012352941176474
-1.796630859375,0.65673828125,0.128662109375,2.045801526717557,-3.877862595419847,-9.854961832061068,41.518235294117645
-1.5849609375,1.193603515625,0.13232421875,3.954198473282443,-3.351145038167939,-0.6030534351145038,40.85941176470588
-1.8837890625,0.631591796875,0.139892578125,1.3435114503816794,-3.3053435114503817,9.511450381679388,40.906470588235294
-1.712158203125,1.149169921875,0.127685546875,1.6717557251908397,-2.404580152671756,-0.22137404580152673,39.96529411764706
-1.811279296875,0.859130859375,0.12548828125,0.4122137404580153,-2.4427480916030535,12.977099236641221,40.71823529411765
-1.818115234375,1.03369140625,0.13623046875,2.6564885496183206,-3.435114503816794,-4.106870229007634,41.00058823529412
-1.76611328125,0.992431640625,0.129638671875,3.366412213740458,-3.1526717557251906,7.648854961832061,40.15352941176471
-1.812255859375,1.0146484375,0.131103515625,2.3282442748091605,-2.946564885496183,-6.00763358778626,40.906470588235294
-1.77978515625,0.917724609375,0.1259765625,2.595419847328244,-2.854961832061069,3.6259541984732824,40.53
-1.714599609375,1.044921875,0.128662109375,3.3587786259541983,-2.3053435114503817,-0.17557251908396945,40.012352941176474
-1.759033203125,0.873779296875,0.139404296875,0.35877862595419846,-2.267175572519084,5.526717557251908,40.76529411764706
-1.720947265625,0.99755859375,0.132568359375,2.83206106870229,-2.9160305343511452,3.7938931297709924,41.00058823529412
-1.6611328125,0.90283203125,0.13671875,3.816793893129771,-3.068702290076336,-6.038167938931298,40.85941176470588
-1.638916015625,0.956298828125,0.127685546875,2.068702290076336,-2.9618320610687023,17.458015267175572,40.76529411764706
-1.53125,1.0732421875,0.12841796875,4.450381679389313,-1.0458015267175573,-21.419847328244273,39.91823529411765
-1.462646484375,0.755615234375,0.1298828125,0.9465648854961832,-3.877862595419847,5.66412213740458,40.906470588235294
-1.7578125,1.062744140625,0.12890625,5.488549618320611,-2.045801526717557,-4.0534351145038165,39.21235294117647
-1.09765625,0.92529296875,0.131591796875,2.8931297709923665,-3.8931297709923665,21.450381679389313,40.71823529411765
-1.544189453125,1.141845703125,0.13427734375,5.412213740458015,-3.8702290076335877,3.801526717557252,40.012352941176474
-1.17431640625,0.8759765625,0.138671875,1.3969465648854962,-1.984732824427481,3.8091603053435112,40.76529411764706
-1.198974609375,1.023681640625,0.1259765625,2.0229007633587788,-3.732824427480916,11.274809160305344,40.76529411764706
-0.91455078125,1.007080078125,0.134033203125,3.2977099236641223,-2.885496183206107,-12.229007633587786,40.906470588235294
-1.09130859375,0.926025390625,0.136474609375,3.801526717557252,-1.0305343511450382,0.0916030534351145,39.21235294117647
-1.09423828125,0.973388671875,0.136474609375,3.3053435114503817,-1.5114503816793894,-11.206106870229007,40.012352941176474
-0.657958984375,0.777099609375,0.14208984375,2.3435114503816794,-3.030534351145038,-17.68702290076336,40.29470588235294
-0.61572265625,1.10009765625,0.12841796875,3.4656488549618323,-1.0381679389312977,0.05343511450381679,39.96529411764706
-0.6640625,0.906494140625,0.130126953125,3.4656488549618323,-3.763358778625954,15.274809160305344,40.012352941176474
-0.5341796875,1.113037109375,0.133056640625,5.763358778625954,-3.6564885496183206,-2.0076335877862594,39.96529411764706
-0.280029296875,1.060546875,0.125,1.6030534351145038,-2.8396946564885495,-25.625954198473284,39.96529411764706
-0.369384765625,0.921875,0.138916015625,3.0229007633587788,-3.3435114503816794,5.625954198473282,40.012352941176474
-0.08056640625,0.701416015625,0.13232421875,1.4274809160305344,-2.8396946564885495,21.213740458015266,40.15352941176471
-0.115478515625,1.74658203125,0.137939453125,3.7099236641221376,-2.5572519083969465,-4.580152671755725,39.91823529411765
-0.012451171875,0.41015625,0.131591796875,3.33587786259542,-3.4885496183206106,19.30534351145038,40.1064705882353
0.126953125,1.4736328125,0.13330078125,2.931297709923664,-2.8931297709923665,-0.2366412213740458,40.24764705882353
0.247314453125,0.84521484375,0.133056640625,1.6717557251908397,-2.1068702290076335,3.7709923664122136,40.71823529411765
0.430419921875,1.324462890625,0.15087890625,2.4580152671755724,-2.618320610687023,5.66412213740458,40.341764705882355
0.5810546875,0.861083984375,0.13330078125,5.694656488549619,-0.1450381679389313,-15.603053435114504,39.071176470588235
0.418212890625,0.884521484375,0.13818359375,3.7938931297709924,-3.66412213740458,7.786259541984733,40.76529411764706
0.8583984375,0.962646484375,0.13623046875,1.8015267175572518,-0.007633587786259542,-19.50381679389313,39.82411764705883
0.79296875,1.178466796875,0.1337890625,2.1068702290076335,-1.9541984732824427,17.793893129770993,40.012352941176474
0.776123046875,1.029052734375,0.125,2.7022900763358777,-3.16793893129771,-19.641221374045802,40.71823529411765
0.91845703125,0.731689453125,0.139892578125,3.854961832061069,-3.2061068702290076,23.442748091603054,39.96529411764706
1.297607421875,1.5810546875,0.128173828125,2.2061068702290076,-2.3969465648854964,-19.65648854961832,39.96529411764706
1.06103515625,0.801513671875,0.134033203125,1.9770992366412214,-1.9923664122137406,-9.977099236641221,40.53
1.28369140625,0.9404296875,0.140380859375,0.7862595419847328,-2.045801526717557,23.236641221374047,40.57705882352941
1.291015625,1.0458984375,0.13916015625,3.786259541984733,-3.7709923664122136,1.3435114503816794,39.96529411764706
1.42724609375,1.2685546875,0.13232421875,4.213740458015267,-3.8473282442748094,-6.0534351145038165,40.671176470588236
1.4873046875,1.1748046875,0.12548828125,4.877862595419847,-3.2442748091603053,-5.908396946564886,39.777058823529416
1.588134765625,0.87255859375,0.12890625,2.9160305343511452,-3.015267175572519,-5.923664122137405,40.012352941176474
1.433349609375,0.939453125,0.126708984375,1.2900763358778626,-2.7709923664122136,23.30534351145038,40.71823529411765
1.703369140625,1.151611328125,0.12939453125,2.816793893129771,-2.236641221374046,-0.26717557251908397,40.906470588235294
1.65576171875,1.14453125,0.13037109375,3.3893129770992365,-2.0610687022900764,-4.33587786259542,40.012352941176474
1.614990234375,1.042724609375,0.13623046875,2.5572519083969465,-1.1068702290076335,0.37404580152671757,40.85941176470588
1.778076171875,1.169189453125,0.125,2.763358778625954,-0.8625954198473282,-7.816793893129771,40.53
1.636474609375,0.943603515625,0.150390625,2.4427480916030535,-2.6259541984732824,5.66412213740458,40.43588235294118
1.732421875,1.140869140625,0.136474609375,5.801526717557252,-1.3435114503816794,-1.9312977099236641,40.15352941176471
1.6943359375,1.01416015625,0.138916015625,2.786259541984733,-1.534351145038168,4.106870229007634,40.671176470588236
1.681884765625,1.112548828125,0.13232421875,2.114503816793893,-3.1908396946564888,3.2519083969465647,40.906470588235294
1.65966796875,1.0771484375,0.126953125,2.2061068702290076,-0.29770992366412213,-5.793893129770993,40.85941176470588
1.66845703125,1.048095703125,0.12744140625,3.1297709923664123,-2.801526717557252,-0.32061068702290074,40.76529411764706
1.6259765625,1.10205078125,0.146728515625,2.0381679389312977,-1.0381679389312977,-1.8091603053435115,40.341764705882355
1.650390625,1.048095703125,0.13037109375,3.8625954198473282,-3.572519083969466,-4.022900763358779,39.91823529411765
1.48291015625,1.0322265625,0.129150390625,3.0763358778625953,-0.5038167938931297,-1.8778625954198473,40.906470588235294
1.487060546875,1.03466796875,0.127197265625,3.5801526717557253,-2.900763358778626,-0.37404580152671757,40.71823529411765
1.458251953125,1.200439453125,0.127685546875,0.9694656488549618,-0.6030534351145038,8.083969465648854,40.76529411764706
1.393310546875,0.89453125,0.13623046875,3.854961832061069,-3.2213740458015265,-4.015267175572519,40.15352941176471
1.116943359375,1.0048828125,0.13623046875,0.17557251908396945,-0.5267175572519084,8.13740458015267,41.75352941176471
1.501220703125,1.3154296875,0.13134765625,2.8473282442748094,-2.6030534351145036,-7.977099236641221,39.96529411764706
0.947021484375,0.63427734375,0.128662109375,0.5343511450381679,-2.1526717557251906,-4.068702290076335,41.00058823529412
1.14697265625,1.267822265625,0.130615234375,0.17557251908396945,-2.198473282442748,13.358778625954198,41.42411764705882
0.996337890625,1.15234375,0.13916015625,4.5038167938931295,-3.6717557251908395,-5.900763358778626,40.85941176470588
0.927734375,1.129150390625,0.137939453125,2.9389312977099236,-0.7786259541984732,-5.641221374045801,40.15352941176471
0.89013671875,0.746337890625,0.1259765625,1.4351145038167938,-2.6946564885496183,1.4580152671755726,41.47117647058823
0.4970703125,1.157470703125,0.12890625,3.549618320610687,-2.267175572519084,1.618320610687023,40.76529411764706
0.726806640625,1.0224609375,0.134521484375,3.5267175572519083,-1.5725190839694656,8.01526717557252,39.91823529411765
0.271728515625,1.161376953125,0.127685546875,0.2824427480916031,-2.4656488549618323,-9.83969465648855,41.61235294117647
0.655517578125,0.9462890625,0.1279296875,3.7480916030534353,-2.549618320610687,-2.2977099236641223,40.71823529411765
0.25439453125,0.94677734375,0.134033203125,2.9770992366412212,-3.8702290076335877,15.305343511450381,40.76529411764706
-0.04931640625,0.926025390625,0.1259765625,3.427480916030534,-3.0763358778625953,-11.900763358778626,40.85941176470588
0.29296875,1.21142578125,0.128662109375,3.900763358778626,-0.015267175572519083,9.877862595419847,40.1064705882353
-0.111572265625,0.96484375,0.138671875,3.0076335877862594,-3.763358778625954,-7.984732824427481,40.71823529411765
-0.144287109375,1.1533203125,0.132080078125,3.885496183206107,-1.0534351145038168,19.709923664122137,40.906470588235294
-0.075439453125,1.167724609375,0.127685546875,3.312977099236641,-3.2977099236641223,-29.435114503816795,39.91823529411765
-0.517578125,0.668212890625,0.14013671875,3.549618320610687,-3.3893129770992365,31.15267175572519,40.671176470588236
-0.5078125,1.249755859375,0.13330078125,0.8244274809160306,-0.19083969465648856,-11.664122137404581,41.47117647058823
-0.45703125,1.014404296875,0.134521484375,2.6793893129770994,-2.7022900763358777,-13.83969465648855,40.85941176470588
-0.708984375,0.95751953125,0.126708984375,1.5648854961832062,-2.7938931297709924,21.19083969465649,40.1064705882353
-0.98193359375,0.939208984375,0.132080078125,-0.07633587786259542,-2.4732824427480917,-39.47328244274809,40.671176470588236
-0.541259765625,0.96630859375,0.135986328125,3.1068702290076335,-3.648854961832061,23.27480916030534,40.76529411764706
-1.171875,0.965576171875,0.138427734375,3.2442748091603053,-2.816793893129771,-2.0,40.71823529411765
-0.928466796875,1.161376953125,0.130859375,4.938931297709924,-3.0,29.0,40.012352941176474
-1.068603515625,0.955078125,0.13916015625,0.42748091603053434,-1.0687022900763359,-15.603053435114504,41.518235294117645
-1.485107421875,0.8271484375,0.130859375,3.564885496183206,-2.427480916030534,19.442748091603054,40.671176470588236
-1.099609375,1.151123046875,0.130859375,2.9770992366412212,-2.366412213740458,-3.9236641221374047,40.76529411764706
-1.348876953125,0.804443359375,0.132568359375,1.5725190839694656,-2.3893129770992365,-17.778625954198475,40.85941176470588
-1.4130859375,0.874755859375,0.12646484375,2.3969465648854964,-3.183206106870229,13.206106870229007,41.65941176470589
-1.63037109375,1.177978515625,0.139404296875,4.320610687022901,-2.8244274809160306,15.587786259541986,40.76529411764706
-1.585693359375,1.033447265625,0.130126953125,3.3206106870229006,-2.7251908396946565,-11.748091603053435,40.76529411764706
-1.648193359375,0.8095703125,0.132568359375,2.687022900763359,-0.9770992366412213,-3.8473282442748094,40.71823529411765
-1.67236328125,0.998046875,0.1259765625,4.458015267175573,-1.7938931297709924,-7.67175572519084,40.76529411764706
-1.575927734375,1.02392578125,0.1396484375,2.3969465648854964,-2.6030534351145036,-4.458015267175573,40.671176470588236
-1.81298828125,0.92578125,0.138427734375,3.9083969465648853,-3.236641221374046,-0.015267175572519083,40.85941176470588
-1.690673828125,0.858642578125,0.1376953125,0.9465648854961832,-3.2061068702290076,7.6106870229007635,40.85941176470588
-1.814208984375,0.996337890625,0.13232421875,0.9465648854961832,-2.3740458015267176,-2.2290076335877864,40.71823529411765
-1.785888671875,0.963623046875,0.13916015625,2.9389312977099236,-3.4732824427480917,-0.3816793893129771,40.71823529411765
-1.787353515625,0.946044921875,0.1259765625,2.404580152671756,-3.1068702290076335,3.7786259541984735,40.76529411764706
-1.7958984375,0.942626953125,0.132080078125,0.3511450381679389,-0.9923664122137404,0.11450381679389313,40.906470588235294
-1.784912109375,1.029296875,0.12890625,3.3969465648854964,-3.312977099236641,-0.16793893129770993,40.012352941176474
-1.776611328125,0.983642578125,0.1259765625,2.267175572519084,-2.2519083969465647,3.816793893129771,40.76529411764706
-1.761474609375,1.0458984375,0.130126953125,4.122137404580153,-1.297709923664122,-1.8778625954198473,40.85941176470588
-1.748046875,0.8125,0.133544921875,2.816793893129771,-3.7251908396946565,3.633587786259542,40.76529411764706
-1.70361328125,0.965576171875,0.130615234375,2.2900763358778624,-2.984732824427481,7.763358778625954,40.71823529411765
-1.688232421875,0.968505859375,0.13916015625,2.6946564885496183,-3.50381679389313,-15.732824427480915,40.671176470588236
-1.589599609375,0.740478515625,0.13818359375,2.2061068702290076,-0.816793893129771,19.549618320610687,40.71823529411765
-1.555419921875,1.224853515625,0.141357421875,3.0916030534351147,-3.5877862595419847,-0.0916030534351145,39.58882352941177
-1.4814453125,0.955810546875,0.130126953125,0.3969465648854962,-0.7022900763358778,-9.67175572519084,40.671176470588236
-1.57568359375,0.848388671875,0.1298828125,7.183206106870229,-3.7099236641221376,-15.648854961832061,39.91823529411765
-1.408935546875,0.87841796875,0.13427734375,2.9160305343511452,-1.3053435114503817,27.442748091603054,40.76529411764706
-1.17236328125,1.238037109375,0.132080078125,3.763358778625954,-3.6793893129770994,-12.038167938931299,39.21235294117647
-1.463134765625,0.803466796875,0.125732421875,2.030534351145038,-3.6030534351145036,11.595419847328245,40.71823529411765
-1.165771484375,1.26953125,0.132568359375,2.1908396946564888,-2.1297709923664123,-7.824427480916031,40.76529411764706
-1.080322265625,0.7060546875,0.132568359375,3.8473282442748094,-1.7251908396946565,-3.6259541984732824,40.1064705882353
-0.8662109375,0.810302734375,0.13232421875,1.1526717557251909,-2.5572519083969465,11.65648854961832,39.91823529411765
-1.01904296875,1.234619140625,0.14111328125,2.8473282442748094,-3.099236641221374,-8.091603053435115,39.54176470588236
-0.673095703125,0.890869140625,0.13671875,2.6946564885496183,-3.572519083969466,-8.099236641221374,40.71823529411765
-0.920654296875,1.160400390625,0.12646484375,3.0381679389312977,-2.49618320610687,-16.015267175572518,40.24764705882353
-0.514892578125,0.4853515625,0.1328125,2.381679389312977,-1.083969465648855,-3.8091603053435112,40.012352941176474
-0.362548828125,1.47412109375,0.134033203125,4.061068702290076,-1.8778625954198473,13.80916030534351,40.85941176470588
-0.54296875,0.875244140625,0.126220703125,3.5419847328244276,-1.0381679389312977,-7.809160305343512,39.96529411764706
-0.22265625,0.8818359375,0.135009765625,0.9083969465648855,-2.786259541984733,28.83969465648855,39.777058823529416
-0.351806640625,1.24951171875,0.13818359375,0.5648854961832062,-1.9770992366412214,-4.259541984732825,40.76529411764706
0.02783203125,0.85986328125,0.128173828125,4.931297709923665,-3.480916030534351,-11.885496183206106,40.76529411764706
0.07763671875,1.125732421875,0.13232421875,1.1526717557251909,-2.1526717557251906,9.717557251908397,40.012352941176474
0.201171875,0.99267578125,0.140380859375,1.6946564885496183,-2.717557251908397,7.511450381679389,40.15352941176471
0.262939453125,1.141845703125,0.138671875,0.648854961832061,-2.0229007633587788,-5.9541984732824424,40.71823529411765
0.372314453125,0.682373046875,0.128662109375,1.9923664122137406,-2.5343511450381677,15.50381679389313,40.671176470588236
0.453369140625,1.427490234375,0.130126953125,5.190839694656488,-1.0763358778625953,-7.572519083969466,39.16529411764706
0.724609375,0.806640625,0.134033203125,2.4885496183206106,-3.198473282442748,13.358778625954198,40.71823529411765
0.447998046875,1.302001953125,0.13330078125,4.030534351145038,-1.1145038167938932,-27.290076335877863,40.85941176470588
1.046142578125,0.830322265625,0.13037109375,5.763358778625954,-1.3893129770992367,11.801526717557252,40.71823529411765
0.807861328125,1.19921875,0.139892578125,3.763358778625954,-2.2519083969465647,-15.725190839694656,39.494705882352946
0.943115234375,0.711181640625,0.13916015625,3.49618320610687,-3.9083969465648853,-13.770992366412214,40.15352941176471
1.275146484375,1.210205078125,0.13916015625,3.0839694656488548,-2.4580152671755724,17.297709923664122,40.71823529411765
1.024658203125,0.998779296875,0.129150390625,2.595419847328244,-2.519083969465649,-0.3282442748091603,39.96529411764706
1.21435546875,1.211669921875,0.13671875,3.7099236641221376,-0.3511450381679389,11.84732824427481,40.012352941176474
1.34130859375,0.988037109375,0.126708984375,1.3740458015267176,-0.31297709923664124,0.12213740458015267,40.76529411764706
1.30908203125,0.977783203125,0.133544921875,1.9770992366412214,-3.4885496183206106,-21.80916030534351,40.85941176470588
1.7001953125,1.03662109375,0.12841796875,2.145038167938931,-0.7175572519083969,10.0,40.71823529411765
1.4306640625,1.26953125,0.13671875,5.282442748091603,-3.8625954198473282,7.755725190839694,39.96529411764706
1.513427734375,0.966064453125,0.1279296875,3.1603053435114505,-2.8396946564885495,-12.061068702290076,40.012352941176474
1.720947265625,1.079833984375,0.126708984375,2.312977099236641,-3.4885496183206106,7.648854961832061,40.76529411764706
1.571533203125,1.05126953125,0.13916015625,5.4961832061068705,-3.0916030534351147,1.900763358778626,40.671176470588236
1.689208984375,1.07763671875,0.132568359375,2.312977099236641,-3.114503816793893,7.320610687022901,40.76529411764706
1.698486328125,1.117919921875,0.12841796875,2.053435114503817,-0.7633587786259542,0.05343511450381679,40.76529411764706
1.6396484375,1.069580078125,0.131591796875,3.068702290076336,-0.7862595419847328,-5.755725190839694,40.48294117647059
1.761962890625,1.025390625,0.13427734375,2.595419847328244,-2.0610687022900764,-2.2290076335877864,40.76529411764706
1.718505859375,1.093505859375,0.130126953125,2.0076335877862594,-3.0076335877862594,1.8931297709923665,40.76529411764706
1.671875,1.017822265625,0.13525390625,2.6106870229007635,-3.732824427480916,-1.9923664122137406,41.00058823529412
1.684814453125,1.10302734375,0.1357421875,2.4885496183206106,-1.0458015267175573,3.954198473282443,40.671176470588236
1.682373046875,1.11279296875,0.137939453125,5.404580152671755,-3.618320610687023,-0.4122137404580153,40.15352941176471
1.56689453125,1.021728515625,0.133544921875,2.50381679389313,-2.404580152671756,-8.022900763358779,40.671176470588236
1.608154296875,0.938232421875,0.1396484375,1.633587786259542,-2.3206106870229006,-0.3511450381679389,40.71823529411765
1.59912109375,1.1943359375,0.1376953125,2.519083969465649,-2.8931297709923665,-3.9618320610687023,40.76529411764706
1.46044921875,0.844970703125,0.13427734375,3.595419847328244,-0.7480916030534351,6.061068702290076,40.71823529411765
1.39501953125,1.283935546875,0.12744140625,3.053435114503817,-3.633587786259542,-4.282442748091603,40.71823529411765
1.50634765625,0.942138671875,0.134521484375,2.1526717557251906,-1.7633587786259541,9.83969465648855,40.76529411764706
1.26025390625,1.116455078125,0.136962890625,3.633587786259542,-1.8091603053435115,-13.305343511450381,40.1064705882353
1.11669921875,0.90087890625,0.129638671875,2.6793893129770994,-3.2977099236641223,11.358778625954198,41.518235294117645
1.31591796875,1.222900390625,0.12548828125,3.1603053435114505,-3.16793893129771,-10.0,40.71823529411765
0.871337890625,0.82275390625,0.13671875,2.4427480916030535,-3.0839694656488548,11.618320610687023,40.76529411764706
1.1513671875,1.29638671875,0.12890625,3.236641221374046,-3.7099236641221376,-2.2900763358778624,40.53
0.937255859375,1.010498046875,0.1298828125,5.778625954198473,-3.7480916030534353,-12.007633587786259,40.76529411764706
0.83154296875,0.96630859375,0.137451171875,2.053435114503817,-3.648854961832061,15.595419847328245,40.906470588235294
0.633544921875,1.06005859375,0.130615234375,2.4580152671755724,-3.198473282442748,24.938931297709924,40.85941176470588
0.574951171875,1.21337890625,0.138916015625,5.8396946564885495,-1.9083969465648856,-11.610687022900763,40.76529411764706
0.462158203125,1.062744140625,0.133056640625,3.885496183206107,-1.2595419847328244,-17.396946564885496,40.012352941176474
0.498779296875,0.846435546875,0.13037109375,2.1526717557251906,-3.122137404580153,3.648854961832061,41.00058823529412
0.191162109375,0.830810546875,0.13720703125,3.8625954198473282,-2.2061068702290076,19.412213740458014,41.61235294117647
0.11572265625,1.376953125,0.128662109375,5.015267175572519,-3.786259541984733,-31.595419847328245,40.671176470588236
0.055419921875,0.695068359375,0.135498046875,5.366412213740458,-3.8091603053435112,9.221374045801527,40.012352941176474
-0.0810546875,1.280517578125,0.1318359375,2.183206106870229,-0.1450381679389313,2.3206106870229006,41.65941176470589
-0.038818359375,1.009765625,0.133056640625,3.053435114503817,-3.267175572519084,-29.587786259541986,40.71823529411765
-0.36474609375,0.68310546875,0.12548828125,1.6870229007633588,-1.1221374045801527,21.610687022900763,40.71823529411765
-0.375,1.308349609375,0.138916015625,3.7938931297709924,-1.984732824427481,17.35114503816794,41.00058823529412
-0.4375,0.84375,0.126953125,0.20610687022900764,-2.0763358778625953,-25.412213740458014,41.61235294117647
-0.74755859375,0.849365234375,0.13525390625,2.16793893129771,-3.351145038167939,19.297709923664122,40.57705882352941
-0.72216796875,1.248779296875,0.138671875,-0.5419847328244275,-0.5648854961832062,15.679389312977099,40.76529411764706
-0.794189453125,1.064453125,0.137451171875,5.282442748091603,-3.2595419847328246,-13.938931297709924,39.96529411764706
-0.971923828125,0.854248046875,0.13037109375,0.4732824427480916,-2.282442748091603,-15.664122137404581,41.518235294117645
-0.977294921875,0.85205078125,0.134033203125,3.5267175572519083,-3.8244274809160306,17.33587786259542,40.906470588235294
-1.107177734375,1.094970703125,0.13037109375,1.7557251908396947,-2.3282442748091605,21.106870229007633,39.91823529411765
-1.259033203125,1.107421875,0.130859375,5.740458015267175,-1.2595419847328244,-16.931297709923665,40.012352941176474
-1.1162109375,1.09619140625,0.126708984375,3.0610687022900764,-2.5343511450381677,3.7557251908396947,40.57705882352941
-1.351806640625,0.5791015625,0.138916015625,1.8015267175572518,-3.0839694656488548,-29.84732824427481,41.47117647058823
-1.361083984375,0.67919921875,0.12548828125,0.183206106870229,-0.48091603053435117,6.0534351145038165,40.671176470588236
-1.401611328125,1.250732421875,0.128173828125,4.175572519083969,-2.732824427480916,3.900763358778626,40.76529411764706
-1.568603515625,0.751708984375,0.132080078125,4.770992366412214,-3.877862595419847,25.091603053435115,40.76529411764706
-1.54736328125,1.36181640625,0.125244140625,2.015267175572519,-1.2366412213740459,-23.206106870229007,40.71823529411765
-1.598388671875,0.771240234375,0.1484375,1.3893129770992367,-0.061068702290076333,8.030534351145038,40.29470588235294
-1.60205078125,1.042724609375,0.1259765625,2.931297709923664,-3.66412213740458,-9.938931297709924,40.85941176470588
-1.6884765625,0.873779296875,0.15087890625,2.786259541984733,-2.1297709923664123,-4.099236641221374,40.43588235294118
-1.7734375,0.91259765625,0.133056640625,1.5267175572519085,-2.1374045801526718,3.6717557251908395,40.15352941176471
-1.772216796875,0.9853515625,0.1376953125,3.5877862595419847,-3.198473282442748,-6.0458015267175576,40.1064705882353
-1.7314453125,0.75048828125,0.134033203125,1.6641221374045803,-1.5114503816793894,11.86259541984733,40.76529411764706
-1.828125,1.13427734375,0.128662109375,5.244274809160306,-3.6030534351145036,-10.183206106870228,40.24764705882353
-1.801025390625,0.814453125,0.1533203125,0.8625954198473282,-2.2977099236641223,9.740458015267176,40.29470588235294
-1.78759765625,1.06884765625,0.1357421875,2.549618320610687,-1.381679389312977,-1.465648854961832,40.71823529411765
-1.78857421875,0.906494140625,0.12890625,2.4122137404580153,-2.8702290076335877,1.6641221374045803,40.906470588235294
-1.749755859375,0.944580078125,0.14013671875,3.786259541984733,-2.3893129770992365,-2.1908396946564888,39.96529411764706
-1.778564453125,0.89208984375,0.13525390625,2.6717557251908395,-3.122137404580153,7.67175572519084,40.76529411764706
-1.6962890625,0.960205078125,0.1396484375,0.8625954198473282,-1.1450381679389312,0.05343511450381679,40.71823529411765
-1.730712890625,1.0068359375,0.137939453125,2.885496183206107,-2.2900763358778624,-0.09923664122137404,39.96529411764706
-1.605224609375,1.00537109375,0.1337890625,3.5419847328244276,-1.282442748091603,15.65648854961832,40.012352941176474
-1.689208984375,1.138427734375,0.132568359375,4.4961832061068705,-3.900763358778626,-2.5343511450381677,40.85941176470588
-1.658447265625,0.625732421875,0.126220703125,1.0,-2.564885496183206,7.694656488549619,40.671176470588236
-1.47509765625,1.183837890625,0.1259765625,4.099236641221374,-3.564885496183206,-9.854961832061068,40.76529411764706
-1.471923828125,0.99658203125,0.127685546875,2.1908396946564888,-2.381679389312977,-23.6793893129771,40.71823529411765
-1.28564453125,0.817626953125,0.129638671875,3.3053435114503817,-1.3740458015267176,1.9541984732824427,40.1064705882353
-1.38037109375,0.818603515625,0.126220703125,4.595419847328245,-0.6259541984732825,23.458015267175572,39.353529411764704
-1.338134765625,1.131103515625,0.129638671875,1.5801526717557253,-2.854961832061069,-2.068702290076336,40.71823529411765
-1.282958984375,0.921630859375,0.13330078125,4.099236641221374,-3.053435114503817,-4.396946564885496,40.85941176470588
-0.907470703125,1.1337890625,0.13427734375,1.083969465648855,-0.8320610687022901,11.763358778625955,40.71823529411765
-0.99755859375,1.1201171875,0.126220703125,1.5877862595419847,-0.32061068702290074,-15.564885496183207,39.91823529411765
-0.9755859375,0.91650390625,0.13427734375,6.648854961832061,-1.748091603053435,0.06870229007633588,39.400588235294116
-0.82275390625,0.6923828125,0.134033203125,3.8931297709923665,-0.6106870229007634,-21.404580152671755,40.906470588235294
-0.836669921875,0.991943359375,0.12890625,3.6106870229007635,-0.4961832061068702,10.01526717557252,39.91823529411765
-0.341552734375,1.18896484375,0.135009765625,1.1221374045801527,-2.1297709923664123,3.66412213740458,40.012352941176474
-0.711669921875,0.70703125,0.1357421875,1.984732824427481,-2.2977099236641223,-6.221374045801527,40.76529411764706
-0.615478515625,1.18603515625,0.133056640625,5.145038167938932,-2.618320610687023,7.656488549618321,40.1064705882353
0.0595703125,0.985595703125,0.13232421875,0.5343511450381679,-2.6946564885496183,-10.045801526717558,39.96529411764706
-0.353271484375,0.8349609375,0.126708984375,1.2213740458015268,-3.1297709923664123,29.19083969465649,40.671176470588236
0.050048828125,1.3935546875,0.13818359375,4.717557251908397,-3.8702290076335877,-13.740458015267176,39.91823529411765
-0.038330078125,0.977783203125,0.13330078125,4.366412213740458,-3.885496183206107,11.648854961832061,40.85941176470588
0.221435546875,0.97265625,0.1298828125,1.8778625954198473,-2.0763358778625953,19.404580152671755,40.012352941176474
0.36376953125,1.172607421875,0.1396484375,2.7480916030534353,-2.3282442748091605,-15.870229007633588,40.15352941176471
0.23828125,0.606689453125,0.126220703125,2.6564885496183206,-1.8625954198473282,0.1450381679389313,40.48294117647059
0.50048828125,1.39599609375,0.12548828125,5.679389312977099,-2.16793893129771,5.488549618320611,39.96529411764706
0.572998046875,0.97509765625,0.13427734375,4.511450381679389,-3.4885496183206106,-0.3511450381679389,39.25941176470588
0.708251953125,0.968017578125,0.126220703125,2.946564885496183,-1.9236641221374047,-5.824427480916031,40.906470588235294
0.90625,0.9794921875,0.13671875,5.290076335877862,-3.8473282442748094,-2.2519083969465647,40.76529411764706
0.704345703125,1.27978515625,0.130615234375,3.9770992366412212,-3.854961832061069,-3.9923664122137406,39.96529411764706
1.23583984375,0.89111328125,0.13134765625,2.8396946564885495,-3.7786259541984735,-5.961832061068702,40.71823529411765
0.966064453125,1.1044921875,0.1259765625,2.0916030534351147,-3.885496183206107,9.725190839694656,40.906470588235294
1.16943359375,1.013427734375,0.139404296875,2.6106870229007635,-2.4427480916030535,-2.3053435114503817,41.00058823529412
1.133544921875,1.219970703125,0.138671875,5.717557251908397,-3.366412213740458,-2.4656488549618323,39.25941176470588
1.35107421875,0.6552734375,0.12841796875,2.5419847328244276,-3.8473282442748094,7.5038167938931295,40.76529411764706
1.299072265625,1.215576171875,0.134765625,0.8778625954198473,-1.0076335877862594,-3.5267175572519083,41.00058823529412
1.6669921875,1.203369140625,0.129150390625,3.3969465648854964,-2.099236641221374,1.6030534351145038,39.96529411764706
1.415771484375,0.9111328125,0.135986328125,2.8702290076335877,-2.9618320610687023,-2.2061068702290076,40.76529411764706
1.611083984375,1.129150390625,0.13818359375,3.045801526717557,-2.801526717557252,13.389312977099237,40.1064705882353
1.595703125,1.13720703125,0.142578125,2.16793893129771,-1.7099236641221374,-1.816793893129771,40.341764705882355
1.56103515625,1.0703125,0.138671875,5.847328244274809,-3.4122137404580153,1.8244274809160306,39.82411764705883
1.783935546875,1.069091796875,0.134765625,2.519083969465649,-2.2290076335877864,3.648854961832061,40.71823529411765
1.57568359375,0.988525390625,0.128662109375,3.717557251908397,-3.6030534351145036,-2.2519083969465647,40.71823529411765
1.7626953125,1.148193359375,0.1396484375,3.6793893129770994,-2.068702290076336,1.5725190839694656,40.1064705882353
1.690185546875,1.022705078125,0.125732421875,2.83206106870229,-1.1908396946564885,-1.9541984732824427,41.00058823529412
1.748779296875,1.119140625,0.136474609375,2.099236641221374,-2.549618320610687,-2.1068702290076335,40.71823529411765
1.67919921875,1.0078125,0.140380859375,2.7404580152671754,-1.3511450381679388,-3.8931297709923665,40.906470588235294
1.706298828125,1.10400390625,0.133544921875,3.618320610687023,-3.5267175572519083,9.358778625954198,40.012352941176474
1.613037109375,1.0791015625,0.128173828125,4.549618320610687,-3.854961832061069,-3.9389312977099236,40.53
1.6298828125,1.02001953125,0.13232421875,2.9923664122137406,-0.8396946564885496,2.198473282442748,40.76529411764706
1.5927734375,1.119873046875,0.12841796875,2.854961832061069,-2.954198473282443,-8.251908396946565,40.76529411764706
1.5166015625,1.02392578125,0.135009765625,3.6793893129770994,-2.3969465648854964,7.763358778625954,40.15352941176471
1.46337890625,1.165771484375,0.1279296875,2.687022900763359,-0.45038167938931295,-19.46564885496183,40.671176470588236
1.49951171875,0.871337890625,0.130615234375,2.8091603053435112,-3.8625954198473282,21.358778625954198,40.76529411764706
1.476806640625,1.19775390625,0.13720703125,0.6030534351145038,-0.4351145038167939,-23.27480916030534,40.76529411764706
1.240478515625,0.981201171875,0.132080078125,2.1068702290076335,-2.8091603053435112,23.366412213740457,40.76529411764706
1.2548828125,1.00048828125,0.130859375,3.3053435114503817,-3.3893129770992365,3.4198473282442747,41.61235294117647
1.2158203125,1.43408203125,0.1279296875,5.549618320610687,-3.2061068702290076,-10.038167938931299,39.96529411764706
1.08642578125,0.821533203125,0.139892578125,0.8931297709923665,-2.0229007633587788,-21.61832061068702,40.1064705882353
0.722900390625,0.86767578125,0.128662109375,1.1374045801526718,-2.236641221374046,33.091603053435115,40.85941176470588
1.125732421875,1.083984375,0.131591796875,3.6946564885496183,-3.1526717557251906,-8.01526717557252,41.47117647058823
0.85791015625,1.383544921875,0.132568359375,4.687022900763359,-1.2290076335877862,-7.687022900763359,39.96529411764706
0.451416015625,0.654052734375,0.138671875,0.8702290076335878,-0.44274809160305345,9.83969465648855,40.671176470588236
0.850341796875,1.067626953125,0.13330078125,3.3435114503816794,-3.6946564885496183,3.5267175572519083,41.47117647058823
0.147216796875,0.98193359375,0.139892578125,3.2442748091603053,-0.9389312977099237,-5.816793893129771,40.76529411764706
0.65283203125,1.3251953125,0.13916015625,1.4427480916030535,-0.05343511450381679,-17.53435114503817,40.15352941176471
0.23095703125,0.630615234375,0.13330078125,0.3053435114503817,-2.763358778625954,11.526717557251908,41.47117647058823
0.176025390625,1.29443359375,0.125732421875,2.1908396946564888,-2.8625954198473282,13.526717557251908,41.42411764705882
0.0361328125,1.1123046875,0.14990234375,5.412213740458015,-3.2290076335877864,-19.66412213740458,39.54176470588236
-0.01953125,0.597412109375,0.138916015625,0.6183206106870229,-3.3206106870229006,-0.1450381679389313,41.65941176470589
-0.319091796875,1.287109375,0.125732421875,3.7251908396946565,-2.045801526717557,9.526717557251908,40.24764705882353
-0.17578125,1.042724609375,0.14013671875,2.8473282442748094,-3.7099236641221376,5.732824427480916,40.85941176470588
-0.334228515625,1.044189453125,0.13720703125,3.33587786259542,-3.1526717557251906,-7.908396946564886,40.906470588235294
-0.64794921875,0.87939453125,0.130126953125,2.732824427480916,-0.5038167938931297,2.053435114503817,40.76529411764706
-0.414794921875,1.2373046875,0.1337890625,3.045801526717557,-3.8473282442748094,-0.44274809160305345,40.15352941176471
-0.93505859375,0.67578125,0.127685546875,2.0916030534351147,-3.5801526717557253,-7.908396946564886,41.65941176470589
-0.678466796875,1.03076171875,0.13525390625,2.7709923664122136,-3.450381679389313,1.8778625954198473,40.85941176470588
-0.968505859375,0.8515625,0.13037109375,1.9618320610687023,-2.33587786259542,-17.65648854961832,40.76529411764706
-0.95556640625,1.050537109375,0.14599609375,-0.2824427480916031,-2.015267175572519,31.18320610687023,41.04764705882353
-1.203125,1.091064453125,0.136962890625,3.312977099236641,-2.3740458015267176,3.8931297709923665,40.24764705882353
-1.049072265625,1.12939453125,0.126953125,2.068702290076336,-3.618320610687023,-0.13740458015267176,40.76529411764706
-1.200927734375,0.902099609375,0.136474609375,2.786259541984733,-2.0,-2.0610687022900764,40.85941176470588
-1.3095703125,0.939208984375,0.1328125,2.099236641221374,-0.6106870229007634,2.0610687022900764,41.61235294117647
-1.3955078125,0.830078125,0.137939453125,1.786259541984733,-1.3206106870229009,7.862595419847328,40.76529411764706
-1.560791015625,1.15478515625,0.132568359375,3.4656488549618323,-2.183206106870229,17.229007633587788,40.24764705882353
-1.474365234375,1.1318359375,0.13037109375,3.1297709923664123,-2.450381679389313,1.7938931297709924,40.53
-1.585205078125,0.94873046875,0.13525390625,2.6030534351145036,-3.3969465648854964,-39.10687022900763,41.00058823529412
-1.771484375,0.495849609375,0.139892578125,0.20610687022900764,-0.6335877862595419,15.709923664122137,41.47117647058823
-1.575927734375,1.26171875,0.1396484375,0.0,-3.351145038167939,-9.885496183206106,41.61235294117647
-1.808349609375,0.882568359375,0.125244140625,5.526717557251908,-3.282442748091603,-4.0534351145038165,40.012352941176474
-1.6455078125,0.927978515625,0.13134765625,0.816793893129771,-2.9770992366412212,5.656488549618321,40.906470588235294
-1.856201171875,0.92919921875,0.134033203125,3.7709923664122136,-1.381679389312977,-7.770992366412214,40.15352941176471
-1.696533203125,0.901611328125,0.129638671875,3.7709923664122136,-3.3587786259541983,7.6106870229007635,40.012352941176474
-1.875732421875,1.066650390625,0.13720703125,1.9541984732824427,-3.595419847328244,3.6106870229007635,40.85941176470588
-1.80810546875,1.0498046875,0.131591796875,3.732824427480916,-1.0763358778625953,-3.9083969465648853,40.15352941176471
-1.803466796875,0.82177734375,0.130859375,1.2061068702290076,-2.450381679389313,7.633587786259542,40.85941176470588
-1.810546875,1.050048828125,0.13525390625,2.0229007633587788,-2.351145038167939,1.8396946564885497,40.76529411764706
-1.76611328125,0.896240234375,0.12890625,2.3282442748091605,-0.9923664122137404,2.030534351145038,40.76529411764706
-1.76220703125,0.967529296875,0.13525390625,2.9923664122137406,-3.435114503816794,-4.0534351145038165,40.85941176470588
-1.7294921875,0.948486328125,0.12841796875,2.2748091603053435,-3.3435114503816794,7.595419847328245,40.85941176470588
-1.64990234375,1.04638671875,0.127197265625,3.6106870229007635,-0.7709923664122137,-7.580152671755725,40.1064705882353
-1.6943359375,0.869384765625,0.13916015625,3.4122137404580153,-2.312977099236641,15.625954198473282,40.1064705882353
-1.627197265625,1.115966796875,0.13037109375,2.0839694656488548,-1.1603053435114503,-11.48091603053435,40.85941176470588
-1.79150390625,0.69189453125,0.130615234375,2.4732824427480917,-3.0839694656488548,7.511450381679389,40.671176470588236
-1.316162109375,1.248779296875,0.126708984375,5.480916030534351,-1.0,-3.7480916030534353,40.012352941176474
-1.56494140625,0.74658203125,0.1357421875,3.6259541984732824,-0.366412213740458,0.007633587786259542,40.76529411764706
-1.35205078125,1.1494140625,0.125,0.05343511450381679,-1.0534351145038168,-23.38167938931298,40.1064705882353
-1.282958984375,0.74365234375,0.13525390625,3.030534351145038,-0.5877862595419847,13.732824427480915,39.96529411764706
-1.25439453125,1.072021484375,0.128662109375,2.6717557251908395,-3.5419847328244276,11.641221374045802,40.76529411764706
-1.323486328125,1.107421875,0.13134765625,5.755725190839694,-2.5877862595419847,13.419847328244275,39.82411764705883
-0.918701171875,0.89404296875,0.1318359375,-0.648854961832061,-2.4427480916030535,-8.038167938931299,40.71823529411765
-1.275146484375,1.16552734375,0.13134765625,4.366412213740458,-2.9923664122137406,-13.763358778625955,39.96529411764706
-0.89306640625,0.78125,0.132568359375,2.3053435114503817,-2.5572519083969465,3.900763358778626,39.777058823529416
-0.5146484375,1.086669921875,0.126220703125,3.648854961832061,-2.1908396946564888,-2.282442748091603,40.1064705882353
-0.830078125,0.819091796875,0.1318359375,1.7557251908396947,-2.801526717557252,-6.2748091603053435,40.012352941176474
-0.61865234375,1.044677734375,0.136474609375,0.2900763358778626,-2.1526717557251906,3.801526717557252,40.57705882352941
-0.5498046875,1.026123046875,0.126953125,3.0763358778625953,-3.0610687022900764,11.450381679389313,41.00058823529412
-0.524169921875,0.983642578125,0.12744140625,1.0534351145038168,-2.0763358778625953,-2.045801526717557,40.012352941176474
-0.05029296875,1.1396484375,0.128173828125,3.045801526717557,-3.0,-10.007633587786259,40.012352941176474
-0.191162109375,0.963623046875,0.125244140625,1.465648854961832,-2.33587786259542,7.656488549618321,40.012352941176474
-0.37451171875,0.990966796875,0.1279296875,5.748091603053435,-3.7709923664122136,-2.1603053435114505,40.1064705882353
0.22412109375,0.9052734375,0.148681640625,2.1374045801526718,-3.236641221374046,15.465648854961833,40.341764705882355
0.064453125,1.366455078125,0.1337890625,2.633587786259542,-0.3893129770992366,-15.587786259541986,40.71823529411765
0.2646484375,0.850830078125,0.13623046875,2.6793893129770994,-2.6793893129770994,23.419847328244273,39.96529411764706
0.306884765625,1.115478515625,0.125732421875,3.0839694656488548,-3.2290076335877864,1.633587786259542,40.76529411764706
0.807373046875,0.92041015625,0.138427734375,2.549618320610687,-0.4580152671755725,-9.770992366412214,40.76529411764706
0.52099609375,1.319580078125,0.139892578125,2.236641221374046,-2.5267175572519083,-11.801526717557252,39.91823529411765
0.814208984375,0.85693359375,0.12744140625,2.183206106870229,-0.7786259541984732,7.877862595419847,40.906470588235294
0.36181640625,0.65576171875,0.14013671875,2.4122137404580153,-2.4656488549618323,3.8625954198473282,41.518235294117645
1.15966796875,1.4541015625,0.128662109375,4.908396946564886,-3.236641221374046,-15.893129770992367,39.400588235294116
0.82958984375,0.828125,0.132568359375,1.0763358778625953,-0.1984732824427481,15.717557251908397,41.00058823529412
1.07275390625,1.199462890625,0.131591796875,2.8702290076335877,-0.7022900763358778,-11.51908396946565,39.96529411764706
1.21533203125,0.935791015625,0.133056640625,0.5877862595419847,-2.7099236641221376,11.67175572519084,40.671176470588236
1.156494140625,1.164794921875,0.13818359375,4.854961832061068,-3.8702290076335877,9.297709923664122,40.012352941176474
1.4365234375,1.06396484375,0.125244140625,2.946564885496183,-0.8244274809160306,-21.198473282442748,40.85941176470588
1.325439453125,1.071533203125,0.126220703125,0.5877862595419847,-2.0,-6.099236641221374,40.012352941176474
1.56396484375,0.856201171875,0.12841796875,1.3053435114503817,-3.122137404580153,13.633587786259541,40.71823529411765
1.46923828125,1.287353515625,0.13720703125,3.030534351145038,-0.5419847328244275,0.26717557251908397,40.76529411764706
1.55859375,1.063720703125,0.12744140625,4.198473282442748,-2.213740458015267,3.732824427480916,40.24764705882353
1.631103515625,0.9111328125,0.135498046875,0.5190839694656488,-1.8778625954198473,0.030534351145038167,40.85941176470588
1.527099609375,1.09228515625,0.136962890625,2.9770992366412212,-2.282442748091603,9.16030534351145,40.671176470588236
1.811767578125,1.23095703125,0.126953125,3.5877862595419847,-0.16793893129770993,0.2824427480916031,39.91823529411765
1.632568359375,1.08544921875,0.13427734375,5.816793893129771,-3.267175572519084,-2.099236641221374,40.012352941176474
1.65625,0.9111328125,0.130126953125,1.3435114503816794,-2.2900763358778624,1.5725190839694656,41.00058823529412
1.7099609375,1.1865234375,0.135986328125,2.404580152671756,-1.9923664122137406,-5.900763358778626,40.906470588235294
1.7646484375,1.00048828125,0.138916015625,3.648854961832061,-0.7557251908396947,-1.9465648854961832,40.012352941176474
1.664794921875,1.010009765625,0.127197265625,3.3053435114503817,-3.7557251908396947,1.6488549618320612,40.671176470588236
1.6796875,1.14111328125,0.129150390625,2.2519083969465647,-2.9160305343511452,-0.09923664122137404,40.71823529411765
1.664306640625,1.087646484375,0.1337890625,3.8702290076335877,-1.0916030534351144,5.923664122137405,40.012352941176474
1.612060546875,1.075439453125,0.1484375,4.748091603053435,-3.5343511450381677,-6.236641221374046,40.341764705882355
1.58251953125,1.0087890625,0.13623046875,3.480916030534351,-3.854961832061069,-2.282442748091603,40.906470588235294
1.546630859375,1.02294921875,0.132568359375,3.1908396946564888,-3.2442748091603053,5.786259541984733,40.57705882352941
1.54443359375,1.0927734375,0.131103515625,2.816793893129771,-1.4961832061068703,-9.618320610687023,40.53
1.4990234375,1.1337890625,0.126953125,2.549618320610687,-2.267175572519084,1.7099236641221374,40.1064705882353
1.32421875,1.011474609375,0.1474609375,1.381679389312977,-3.0839694656488548,3.3969465648854964,40.341764705882355
1.25732421875,0.9697265625,0.12646484375,2.1068702290076335,-3.0229007633587788,5.824427480916031,40.71823529411765
1.26025390625,1.062744140625,0.12646484375,1.0,-0.9465648854961832,8.01526717557252,41.61235294117647
1.2021484375,1.20849609375,0.1396484375,2.5801526717557253,-2.5343511450381677,-9.916030534351146,40.906470588235294
1.048828125,1.054443359375,0.1298828125,2.2519083969465647,-1.2061068702290076,-5.740458015267175,40.906470588235294
1.14111328125,1.00634765625,0.129150390625,0.6412213740458015,-2.6564885496183206,-0.42748091603053434,40.71823529411765
0.677001953125,0.872802734375,0.139404296875,2.236641221374046,-3.648854961832061,19.16030534351145,41.47117647058823
0.88330078125,1.280517578125,0.128173828125,3.0610687022900764,-1.3206106870229009,-25.27480916030534,40.53
0.74462890625,1.01025390625,0.134521484375,2.0610687022900764,-3.213740458015267,11.473282442748092,41.00058823529412
0.762939453125,0.7802734375,0.130615234375,1.8625954198473282,-0.0916030534351145,-15.587786259541986,40.85941176470588
0.439453125,1.229736328125,0.139404296875,3.6412213740458017,-1.6030534351145038,21.564885496183205,40.671176470588236
0.467529296875,1.104248046875,0.1279296875,3.7709923664122136,-2.564885496183206,-12.114503816793894,39.96529411764706
-0.03759765625,0.777587890625,0.126953125,1.7709923664122138,-2.366412213740458,-10.053435114503817,41.00058823529412
0.369384765625,1.20751953125,0.13330078125,2.1374045801526718,-1.5801526717557253,31.48854961832061,40.76529411764706
0.056640625,1.140869140625,0.1318359375,4.312977099236641,-3.83206106870229,-2.045801526717557,41.47117647058823
-0.06884765625,0.834716796875,0.1337890625,3.50381679389313,-2.9083969465648853,-25.549618320610687,40.906470588235294
-0.23828125,0.864013671875,0.126708984375,2.5877862595419847,-2.435114503816794,7.595419847328245,40.71823529411765
-0.167724609375,1.1826171875,0.1279296875,2.3740458015267176,-3.2748091603053435,15.34351145038168,41.518235294117645
-0.341552734375,1.409423828125,0.12548828125,6.312977099236641,-3.7557251908396947,1.5419847328244274,40.76529411764706
-0.760986328125,0.566162109375,0.1298828125,1.6030534351145038,-2.3282442748091605,-17.61832061068702,40.1064705882353
-0.4580078125,1.15478515625,0.129150390625,2.2519083969465647,-0.8778625954198473,17.6793893129771,40.76529411764706
-0.755615234375,1.15869140625,0.13623046875,4.221374045801527,-3.1526717557251906,-41.099236641221374,41.00058823529412
-0.922119140625,0.37158203125,0.126953125,-1.8625954198473282,-0.13740458015267176,44.969465648854964,41.65941176470589
-0.758544921875,1.447998046875,0.135986328125,3.7404580152671754,-3.633587786259542,-39.51145038167939,40.012352941176474
-0.963134765625,0.967041015625,0.130126953125,3.687022900763359,-3.5801526717557253,13.335877862595419,40.71823529411765
-1.142822265625,0.936279296875,0.125,3.450381679389313,-1.083969465648855,-9.603053435114504,41.00058823529412
-1.250732421875,0.80712890625,0.128662109375,0.5877862595419847,-2.7709923664122136,28.84732824427481,40.671176470588236
-1.15283203125,1.197509765625,0.125732421875,1.618320610687023,-2.7480916030534353,-2.030534351145038,40.15352941176471
-1.493896484375,0.861328125,0.126220703125,2.3740458015267176,-0.3511450381679389,-3.816793893129771,41.65941176470589
-1.3037109375,1.0693359375,0.140380859375,5.473282442748092,-3.549618320610687,31.259541984732824,40.76529411764706
-1.4013671875,1.21728515625,0.13720703125,4.244274809160306,-3.6946564885496183,-33.45038167938932,40.24764705882353
-1.59521484375,0.474853515625,0.13916015625,0.9847328244274809,-3.267175572519084,11.458015267175572,41.65941176470589
-1.57568359375,1.267333984375,0.138671875,4.633587786259542,-2.6106870229007635,-10.297709923664122,39.96529411764706
-1.774169921875,0.684814453125,0.13525390625,1.9618320610687023,-2.3969465648854964,9.610687022900763,41.518235294117645
-1.516845703125,1.221435546875,0.1318359375,1.9770992366412214,-1.0687022900763359,-11.595419847328245,40.906470588235294
-1.830810546875,0.7177734375,0.145263671875,3.4198473282442747,-2.4198473282442747,3.519083969465649,40.29470588235294
-1.74609375,1.15234375,0.135498046875,3.633587786259542,-3.366412213740458,-1.9770992366412214,40.15352941176471
-1.759765625,0.845458984375,0.15234375,4.549618320610687,-3.7938931297709924,9.679389312977099,39.58882352941177
-1.7451171875,0.943603515625,0.138671875,1.1908396946564885,-3.3282442748091605,-13.854961832061068,40.76529411764706
-1.798095703125,0.864501953125,0.136474609375,2.633587786259542,-0.8778625954198473,5.862595419847328,40.71823529411765
-1.8056640625,1.09033203125,0.13330078125,1.9923664122137406,-3.83206106870229,5.343511450381679,40.85941176470588
-1.781005859375,0.897705078125,0.126953125,2.030534351145038,-3.045801526717557,1.7328244274809161,40.76529411764706
-1.81884765625,0.912353515625,0.1376953125,0.5954198473282443,-2.7099236641221376,5.564885496183206,40.85941176470588
-1.762939453125,1.0,0.1328125,2.099236641221374,-2.068702290076336,-3.9236641221374047,41.00058823529412
-1.772216796875,0.947998046875,0.13330078125,2.801526717557252,-1.4580152671755726,3.9770992366412212,40.76529411764706
-1.67431640625,1.01318359375,0.13232421875,2.1297709923664123,-2.648854961832061,1.6793893129770991,40.53
-1.66943359375,0.96435546875,0.13720703125,0.08396946564885496,-0.8015267175572519,-9.366412213740459,40.906470588235294
-1.679443359375,0.841552734375,0.1396484375,3.7251908396946565,-3.114503816793893,17.16793893129771,39.96529411764706
-1.57763671875,1.110595703125,0.126220703125,3.8244274809160306,-0.11450381679389313,3.9618320610687023,39.91823529411765
-1.710693359375,0.825439453125,0.1298828125,2.8473282442748094,-3.1603053435114505,-2.1374045801526718,40.76529411764706
-1.350830078125,1.17578125,0.132568359375,2.8473282442748094,-3.6259541984732824,-27.61832061068702,39.91823529411765
-1.504150390625,0.69677734375,0.134521484375,2.595419847328244,-2.49618320610687,21.27480916030534,40.906470588235294
-1.4375,1.17626953125,0.130126953125,2.045801526717557,-3.312977099236641,-0.10687022900763359,40.671176470588236
-1.18505859375,1.299072265625,0.128173828125,4.9541984732824424,-2.717557251908397,9.610687022900763,39.16529411764706
-1.335693359375,0.703369140625,0.128662109375,0.1984732824427481,-2.801526717557252,-4.114503816793893,40.57705882352941
-1.16162109375,0.913330078125,0.134033203125,3.6030534351145036,-2.33587786259542,9.595419847328245,39.96529411764706
-1.138916015625,1.02197265625,0.138916015625,0.6641221374045801,-2.2519083969465647,-15.870229007633588,40.671176470588236
-1.04931640625,0.800537109375,0.137451171875,2.5114503816793894,-3.0610687022900764,23.404580152671755,40.76529411764706
-0.731689453125,1.271240234375,0.1552734375,2.83206106870229,-2.1603053435114505,-35.44274809160305,38.83588235294118
-0.99365234375,0.924560546875,0.151611328125,3.9083969465648853,-0.9236641221374046,-3.900763358778626,40.29470588235294
-0.70556640625,0.620849609375,0.13818359375,1.8854961832061068,-2.122137404580153,21.251908396946565,40.85941176470588
-0.61767578125,1.1435546875,0.137451171875,2.7480916030534353,-2.50381679389313,-13.84732824427481,40.012352941176474
-0.557373046875,0.9921875,0.13818359375,3.7251908396946565,-3.2595419847328246,3.687022900763359,39.21235294117647
-0.214599609375,1.1015625,0.126953125,2.282442748091603,-0.549618320610687,8.053435114503817,40.76529411764706
-0.619140625,0.94189453125,0.1337890625,0.8702290076335878,-2.7099236641221376,-5.9465648854961835,40.85941176470588
0.10205078125,0.890869140625,0.135009765625,3.2213740458015265,-1.549618320610687,-9.709923664122137,39.25941176470588
-0.318115234375,1.277587890625,0.125732421875,3.2061068702290076,-2.3969465648854964,17.46564885496183,40.906470588235294
0.08447265625,0.716796875,0.137939453125,2.9618320610687023,-3.66412213740458,11.419847328244275,40.57705882352941
0.195556640625,1.38720703125,0.13037109375,2.404580152671756,-2.595419847328244,3.7938931297709924,40.012352941176474
0.39111328125,1.251953125,0.13134765625,2.564885496183206,-1.015267175572519,-13.549618320610687,39.96529411764706
0.11474609375,0.696044921875,0.136962890625,5.625954198473282,-2.4580152671755724,15.625954198473282,39.91823529411765
0.596435546875,0.929931640625,0.126708984375,3.7022900763358777,-3.0381679389312977,-2.4427480916030535,40.012352941176474
0.611328125,1.3818359375,0.135986328125,2.7786259541984735,-1.6259541984732824,-11.625954198473282,40.76529411764706
0.5234375,0.863037109375,0.138916015625,5.488549618320611,-0.11450381679389313,-3.7786259541984735,40.012352941176474
0.9990234375,0.78759765625,0.137451171875,0.0,-2.427480916030534,-10.267175572519085,40.906470588235294
0.773681640625,1.28759765625,0.135009765625,2.312977099236641,-2.366412213740458,5.3893129770992365,40.012352941176474
0.850830078125,0.7470703125,0.133056640625,3.015267175572519,-3.7557251908396947,17.14503816793893,40.85941176470588
1.291015625,1.451416015625,0.13525390625,3.4580152671755724,-2.946564885496183,-9.969465648854962,40.012352941176474
1.002685546875,0.80517578125,0.13671875,3.3740458015267176,-2.648854961832061,-19.923664122137403,40.15352941176471
1.31884765625,0.89404296875,0.13720703125,2.2977099236641223,-1.6564885496183206,25.480916030534353,40.906470588235294
1.21484375,1.236572265625,0.130859375,4.0458015267175576,-3.6793893129770994,-18.045801526717558,40.71823529411765
1.415283203125,1.0458984375,0.142578125,3.0839694656488548,-2.6564885496183206,5.732824427480916,39.54176470588236
1.62353515625,1.150390625,0.138671875,1.5419847328244274,-2.4427480916030535,-2.4732824427480917,40.1064705882353
1.36474609375,0.89111328125,0.130615234375,3.2442748091603053,-3.633587786259542,7.534351145038168,40.85941176470588
1.640869140625,1.14990234375,0.139404296875,3.3053435114503817,-0.5190839694656488,12.0,40.76529411764706
1.5966796875,1.181884765625,0.135498046875,3.1603053435114505,-2.3435114503816794,-0.2900763358778626,40.012352941176474
1.64111328125,1.109130859375,0.140380859375,2.8625954198473282,-2.9083969465648853,-6.0458015267175576,40.1064705882353
1.6318359375,0.94482421875,0.1279296875,2.0076335877862594,-2.9083969465648853,13.15267175572519,40.71823529411765
1.657470703125,1.157958984375,0.12646484375,4.396946564885496,-3.0610687022900764,-7.854961832061068,40.85941176470588
1.715576171875,0.989013671875,0.128173828125,3.633587786259542,-1.1145038167938932,-1.748091603053435,40.53
1.726806640625,1.134033203125,0.130126953125,3.6946564885496183,-0.5648854961832062,-3.8702290076335877,39.82411764705883
1.70263671875,1.001953125,0.1328125,2.816793893129771,-2.9618320610687023,1.7251908396946565,40.85941176470588
1.739501953125,1.085205078125,0.132080078125,2.3206106870229006,-1.015267175572519,4.00763358778626,40.76529411764706
1.64697265625,1.031982421875,0.130126953125,2.1526717557251906,-2.9923664122137406,1.5114503816793894,40.85941176470588
1.650146484375,1.083984375,0.13916015625,2.66412213740458,-3.198473282442748,-0.09923664122137404,41.00058823529412
1.594970703125,0.968994140625,0.13232421875,1.8091603053435115,-0.22900763358778625,-1.7786259541984732,41.00058823529412
1.662353515625,1.216552734375,0.129638671875,3.6412213740458017,-3.122137404580153,3.8091603053435112,40.012352941176474
1.453369140625,0.984375,0.138916015625,2.9083969465648853,-3.068702290076336,-14.106870229007633,40.85941176470588
1.604736328125,1.109375,0.125732421875,2.282442748091603,-3.4580152671755724,11.511450381679388,40.906470588235294
1.46630859375,1.08984375,0.131591796875,2.7099236641221376,-2.549618320610687,-13.80916030534351,40.76529411764706
1.291015625,0.88427734375,0.13037109375,3.8244274809160306,-2.6412213740458017,7.595419847328245,40.012352941176474
1.399169921875,1.161865234375,0.13525390625,2.267175572519084,-3.0,1.6641221374045803,41.42411764705882
1.224609375,1.063232421875,0.132080078125,3.183206106870229,-3.236641221374046,7.442748091603053,39.96529411764706
1.111083984375,1.02685546875,0.126708984375,3.16793893129771,-2.83206106870229,9.49618320610687,41.00058823529412
1.14453125,1.0625,0.14013671875,3.854961832061069,-3.900763358778626,-0.16030534351145037,39.91823529411765
0.818603515625,0.9912109375,0.126220703125,1.3206106870229009,-3.595419847328244,7.641221374045801,41.518235294117645
1.241943359375,1.36181640625,0.132568359375,4.4961832061068705,-2.969465648854962,-21.66412213740458,40.012352941176474
0.805419921875,0.78466796875,0.145751953125,3.5801526717557253,-3.6106870229007635,9.709923664122137,40.341764705882355
0.585205078125,0.9775390625,0.12646484375,4.824427480916031,-3.6259541984732824,13.67175572519084,41.518235294117645
0.5830078125,1.233154296875,0.133544921875,3.763358778625954,-3.267175572519084,-6.183206106870229,40.671176470588236
0.572998046875,1.170654296875,0.133544921875,4.458015267175573,-0.3282442748091603,7.862595419847328,39.96529411764706
0.3212890625,0.791015625,0.1396484375,1.0076335877862594,-0.3816793893129771,10.16030534351145,41.518235294117645
0.303955078125,1.11279296875,0.135498046875,4.549618320610687,-3.068702290076336,-33.47328244274809,40.76529411764706
0.0693359375,0.80322265625,0.137939453125,2.5343511450381677,-1.5801526717557253,15.702290076335878,40.671176470588236
0.20654296875,1.05322265625,0.1318359375,2.480916030534351,-1.4885496183206106,13.977099236641221,41.00058823529412
-0.1982421875,1.13720703125,0.13330078125,3.1908396946564888,-2.4580152671755724,-5.9465648854961835,41.47117647058823
0.013671875,1.116943359375,0.134765625,5.022900763358779,-2.3435114503816794,-13.740458015267176,39.96529411764706
-0.27294921875,0.70361328125,0.13623046875,3.885496183206107,-3.4580152671755724,11.282442748091603,40.906470588235294
-0.374267578125,1.244873046875,0.12548828125,4.5038167938931295,-3.053435114503817,-19.69465648854962,40.71823529411765
-0.536376953125,1.13427734375,0.131103515625,2.2290076335877864,-2.0381679389312977,3.7480916030534353,41.00058823529412
-0.652587890625,0.614990234375,0.137939453125,3.2900763358778624,-1.6793893129770991,-1.8549618320610688,40.85941176470588
-0.7001953125,1.212890625,0.13037109375,3.0916030534351147,-2.984732824427481,-8.213740458015268,40.85941176470588
-0.751220703125,1.031494140625,0.1337890625,0.46564885496183206,-2.366412213740458,-6.251908396946565,40.57705882352941
-1.30859375,0.72265625,0.126953125,3.0916030534351147,-3.7786259541984735,5.5038167938931295,40.76529411764706
-0.647216796875,1.0546875,0.132080078125,1.4732824427480915,-2.83206106870229,5.580152671755725,40.76529411764706
-1.377197265625,1.081787109375,0.138427734375,4.33587786259542,-1.5114503816793894,9.778625954198473,40.76529411764706
-0.795654296875,1.0849609375,0.14013671875,3.3435114503816794,-0.29770992366412213,-3.480916030534351,39.91823529411765
-1.654541015625,0.6240234375,0.1318359375,2.16793893129771,-3.145038167938931,1.6106870229007633,41.65941176470589
-0.996826171875,1.308349609375,0.139404296875,4.152671755725191,-2.6564885496183206,29.053435114503817,40.76529411764706
-1.37158203125,1.03076171875,0.128662109375,3.7938931297709924,-2.122137404580153,-0.31297709923664124,39.96529411764706
-1.77197265625,0.855224609375,0.1298828125,2.1374045801526718,-3.1603053435114505,-35.6793893129771,41.42411764705882
-1.180419921875,0.8662109375,0.132568359375,2.8396946564885495,-3.7557251908396947,19.267175572519083,40.671176470588236
-1.844482421875,0.90234375,0.126953125,3.633587786259542,-2.83206106870229,-11.786259541984732,40.012352941176474
-1.5029296875,0.908935546875,0.13671875,0.6717557251908397,-2.717557251908397,7.595419847328245,41.00058823529412
-1.777099609375,1.103515625,0.1376953125,3.595419847328244,-1.1603053435114503,-3.732824427480916,40.85941176470588
-1.764892578125,0.93115234375,0.133544921875,2.877862595419847,-2.3740458015267176,1.7099236641221374,40.85941176470588
-1.647216796875,1.15625,0.139404296875,5.076335877862595,-1.6717557251908397,-3.717557251908397,40.1064705882353
-1.847412109375,0.751953125,0.12890625,2.8396946564885495,-1.6106870229007633,-5.679389312977099,40.71823529411765
-1.66943359375,0.935546875,0.131591796875,2.549618320610687,-3.8244274809160306,-0.16793893129770993,41.00058823529412
-1.880126953125,0.86474609375,0.125244140625,3.8625954198473282,-3.4198473282442747,3.5267175572519083,40.24764705882353
-1.756591796875,0.974609375,0.13232421875,3.854961832061069,-1.183206106870229,2.3053435114503817,40.012352941176474
-1.834716796875,0.941162109375,0.130615234375,0.549618320610687,-2.183206106870229,7.67175572519084,40.76529411764706
-1.7197265625,1.068603515625,0.1279296875,2.053435114503817,-2.9389312977099236,-2.0610687022900764,40.53
-1.78173828125,0.99365234375,0.133056640625,3.7557251908396947,-0.17557251908396945,2.015267175572519,39.96529411764706
-1.76123046875,0.927734375,0.13671875,2.381679389312977,-0.5267175572519084,0.12213740458015267,40.76529411764706
-1.709228515625,0.886474609375,0.130859375,2.5114503816793894,-3.6564885496183206,-6.038167938931298,40.76529411764706
-1.70166015625,0.923095703125,0.135009765625,2.5572519083969465,-1.7328244274809161,7.885496183206107,40.76529411764706
-1.603515625,1.047607421875,0.12646484375,2.404580152671756,-2.1068702290076335,5.709923664122138,40.71823529411765
-1.63427734375,1.015625,0.12548828125,2.7022900763358777,-1.4198473282442747,13.755725190839694,40.71823529411765
-1.57666015625,1.119140625,0.134765625,3.4656488549618323,-3.0381679389312977,-11.82442748091603,40.012352941176474
-1.498779296875,0.681396484375,0.12939453125,3.1908396946564888,-1.1297709923664123,21.786259541984734,40.24764705882353
-1.4716796875,1.196533203125,0.131103515625,5.557251908396947,-3.480916030534351,-37.38931297709924,40.012352941176474
-1.343994140625,0.696533203125,0.139892578125,1.3358778625954197,-0.007633587786259542,17.61832061068702,40.24764705882353
-1.369873046875,1.134033203125,0.13330078125,3.2442748091603053,-2.9389312977099236,-13.755725190839694,40.76529411764706
-1.23193359375,0.920166015625,0.126220703125,1.3282442748091603,-2.0229007633587788,-2.16793893129771,40.15352941176471
-1.1640625,0.7626953125,0.127685546875,1.015267175572519,-0.7557251908396947,19.595419847328245,39.96529411764706
-1.185791015625,1.101318359375,0.135986328125,2.6946564885496183,-1.702290076335878,-3.8091603053435112,40.24764705882353
-0.739013671875,1.11572265625,0.13916015625,1.4274809160305344,-0.48091603053435117,-13.541984732824428,40.906470588235294
-0.9736328125,0.977783203125,0.13134765625,2.099236641221374,-2.7251908396946565,7.5038167938931295,40.71823529411765
-0.6337890625,1.18994140625,0.13134765625,3.6793893129770994,-2.267175572519084,-13.801526717557252,39.353529411764704
-0.879150390625,0.61669921875,0.125732421875,0.07633587786259542,-2.4427480916030535,11.038167938931299,41.518235294117645
-0.477294921875,1.10107421875,0.155029296875,3.6259541984732824,-0.9465648854961832,2.0916030534351147,39.54176470588236
-0.50830078125,1.21142578125,0.134765625,3.1297709923664123,-2.8396946564885495,7.801526717557252,39.21235294117647
-0.4990234375,0.445556640625,0.14990234375,1.3969465648854962,-2.900763358778626,-7.931297709923665,40.29470588235294
-0.19970703125,1.263671875,0.128173828125,3.1603053435114505,-3.198473282442748,7.694656488549619,40.671176470588236
-0.0654296875,1.164794921875,0.14013671875,2.6793893129770994,-3.7709923664122136,-4.0534351145038165,39.96529411764706
-0.20361328125,1.209228515625,0.136962890625,3.717557251908397,-3.33587786259542,-15.885496183206106,40.15352941176471
0.217041015625,0.65234375,0.130859375,3.8931297709923665,-1.0534351145038168,-21.106870229007633,40.012352941176474
0.28857421875,0.764892578125,0.12841796875,0.1297709923664122,-1.3129770992366412,37.31297709923664,40.906470588235294
0.15966796875,1.198974609375,0.1396484375,0.37404580152671757,-2.2442748091603053,-11.977099236641221,39.91823529411765
0.35888671875,1.1591796875,0.135498046875,4.465648854961832,-3.3053435114503817,-13.946564885496183,40.85941176470588
0.5703125,0.756591796875,0.12646484375,2.1374045801526718,-2.16793893129771,30.82442748091603,40.53
0.5419921875,1.41259765625,0.138916015625,2.2900763358778624,-3.2977099236641223,-13.740458015267176,40.76529411764706
0.70947265625,0.78271484375,0.130126953125,3.4656488549618323,-1.7786259541984732,11.763358778625955,39.96529411764706
0.797607421875,1.040771484375,0.134765625,5.534351145038168,-1.6870229007633588,-9.610687022900763,40.012352941176474
0.66259765625,1.041748046875,0.126220703125,3.2061068702290076,-1.3129770992366412,-3.717557251908397,39.91823529411765
1.17724609375,1.02294921875,0.1318359375,0.37404580152671757,-2.213740458015267,-10.366412213740459,40.76529411764706
1.10009765625,1.077880859375,0.133056640625,3.7786259541984735,-2.198473282442748,9.725190839694656,39.91823529411765
1.17724609375,1.095947265625,0.13720703125,3.3435114503816794,-2.5572519083969465,-6.114503816793893,40.24764705882353
1.183837890625,1.003173828125,0.1298828125,2.4732824427480917,-1.1603053435114503,5.923664122137405,40.71823529411765
1.3037109375,0.96435546875,0.12939453125,1.6641221374045803,-2.122137404580153,-0.32061068702290074,40.012352941176474
1.25,1.200439453125,0.13671875,4.8320610687022905,-3.801526717557252,15.419847328244275,40.15352941176471
1.601806640625,1.18115234375,0.13134765625,1.8625954198473282,-2.2595419847328246,-12.099236641221374,40.906470588235294
1.455322265625,0.9287109375,0.125,3.145038167938931,-2.213740458015267,-10.045801526717558,40.1064705882353
1.696044921875,0.990478515625,0.13134765625,0.3893129770992366,-0.05343511450381679,7.969465648854962,40.85941176470588
1.4453125,1.189453125,0.129638671875,2.0,-2.1908396946564888,-8.114503816793894,40.71823529411765
1.652587890625,0.863037109375,0.12744140625,2.122137404580153,-3.877862595419847,11.488549618320612,40.76529411764706
1.718017578125,1.3271484375,0.126953125,5.549618320610687,-3.66412213740458,-0.0916030534351145,40.1064705882353
1.634765625,0.997802734375,0.1279296875,2.183206106870229,-2.6717557251908395,1.8549618320610688,40.85941176470588
1.70751953125,1.066650390625,0.13916015625,2.0916030534351147,-3.213740458015267,3.5572519083969465,40.53
1.689453125,1.037841796875,0.13330078125,2.8244274809160306,-1.5954198473282444,-3.480916030534351,40.76529411764706
1.73095703125,1.131103515625,0.1357421875,2.122137404580153,-1.9694656488549618,1.6717557251908397,40.71823529411765
1.6748046875,1.042236328125,0.12841796875,2.8091603053435112,-3.1068702290076335,1.5801526717557253,40.71823529411765
1.703857421875,1.042236328125,0.13525390625,0.7862595419847328,-0.22137404580152673,0.21374045801526717,40.53
1.658935546875,1.08447265625,0.134765625,2.7099236641221376,-1.2671755725190839,0.2366412213740458,40.906470588235294
1.600341796875,1.10791015625,0.1337890625,2.427480916030534,-0.4732824427480916,3.984732824427481,40.76529411764706
1.633544921875,1.119384765625,0.139892578125,3.312977099236641,-2.122137404580153,-3.9770992366412212,39.96529411764706
1.506103515625,0.853759765625,0.137451171875,1.3053435114503817,-2.0763358778625953,-2.450381679389313,40.76529411764706
1.497802734375,1.15283203125,0.134033203125,3.9923664122137406,-3.8396946564885495,5.732824427480916,40.53
1.49072265625,1.187255859375,0.130859375,2.0381679389312977,-3.2213740458015265,-7.931297709923665,40.76529411764706
1.33349609375,0.805908203125,0.1357421875,3.5267175572519083,-1.3893129770992367,4.015267175572519,40.76529411764706
1.376708984375,1.176025390625,0.127197265625,3.7709923664122136,-3.480916030534351,1.6259541984732824,40.76529411764706
1.180419921875,1.307861328125,0.126220703125,3.572519083969466,-2.3282442748091605,-17.931297709923665,39.96529411764706
1.175537109375,0.6396484375,0.134033203125,1.2213740458015268,-2.8396946564885495,8.992366412213741,40.906470588235294
1.05029296875,1.19482421875,0.139404296875,2.7557251908396947,-2.648854961832061,3.801526717557252,40.71823529411765
1.0908203125,1.106689453125,0.134521484375,0.022900763358778626,-3.2748091603053435,11.16030534351145,41.61235294117647
0.903076171875,1.00830078125,0.136474609375,3.1297709923664123,-2.0381679389312977,1.6488549618320612,40.15352941176471
0.709228515625,1.087890625,0.126708984375,3.3053435114503817,-3.435114503816794,-6.0,40.76529411764706
0.984375,1.158935546875,0.13330078125,2.2519083969465647,-1.9923664122137406,7.595419847328245,41.61235294117647
0.429931640625,0.95947265625,0.134521484375,3.198473282442748,-3.1603053435114505,-2.2519083969465647,39.96529411764706
0.65234375,1.1416015625,0.138671875,2.2290076335877864,-1.9923664122137406,-3.946564885496183,40.671176470588236
0.203857421875,0.76123046875,0.1396484375,2.4885496183206106,-3.3053435114503817,-0.1297709923664122,42.224117647058826
0.59033203125,1.329833984375,0.130126953125,0.6564885496183206,-2.2061068702290076,5.679389312977099,40.906470588235294
-0.095458984375,0.948974609375,0.132568359375,4.076335877862595,-2.5114503816793894,-9.82442748091603,39.96529411764706
0.106201171875,0.72607421875,0.125,1.8931297709923665,-0.8091603053435115,33.29007633587786,41.47117647058823
0.083984375,1.49853515625,0.130126953125,3.931297709923664,-3.8091603053435112,-25.87786259541985,40.71823529411765
-0.33837890625,0.639404296875,0.13037109375,2.519083969465649,-3.3435114503816794,-6.129770992366412,40.671176470588236
-0.1904296875,1.009765625,0.134521484375,3.5114503816793894,-2.3206106870229006,-8.221374045801527,40.906470588235294
-0.548828125,0.90576171875,0.138671875,3.7786259541984735,-2.5267175572519083,-3.931297709923664,40.76529411764706
-0.038818359375,1.288330078125,0.130615234375,2.6106870229007635,-3.381679389312977,3.595419847328244,40.76529411764706
-1.001953125,0.44677734375,0.135009765625,5.267175572519084,-3.4656488549618323,-0.37404580152671757,40.906470588235294
-0.58642578125,1.579345703125,0.14013671875,1.381679389312977,-1.5038167938931297,4.137404580152672,40.671176470588236
-0.825439453125,0.63720703125,0.139892578125,1.717557251908397,-2.0610687022900764,7.702290076335878,40.671176470588236
-0.82470703125,1.3173828125,0.12841796875,3.7938931297709924,-3.8473282442748094,3.351145038167939,40.71823529411765
-1.1728515625,0.849365234375,0.13525390625,2.213740458015267,-1.8244274809160306,0.007633587786259542,40.906470588235294
-1.047607421875,1.0595703125,0.127197265625,3.519083969465649,-3.33587786259542,7.687022900763359,40.012352941176474
-1.0869140625,0.967041015625,0.1376953125,3.9923664122137406,-3.6946564885496183,-9.938931297709924,41.61235294117647
-1.243408203125,0.940185546875,0.135009765625,2.2977099236641223,-2.885496183206107,-3.969465648854962,40.76529411764706
-1.37890625,0.920654296875,0.13330078125,3.122137404580153,-2.8396946564885495,17.358778625954198,39.91823529411765
-1.4111328125,1.033447265625,0.136962890625,3.030534351145038,-2.4656488549618323,-16.0381679389313,40.85941176470588
-1.522705078125,0.853759765625,0.125732421875,1.9618320610687023,-3.66412213740458,19.297709923664122,41.47117647058823
-1.4482421875,1.027587890625,0.147216796875,2.9236641221374047,-3.145038167938931,-2.145038167938931,40.29470588235294
-1.6162109375,0.967529296875,0.1298828125,2.068702290076336,-0.8320610687022901,10.282442748091603,41.518235294117645
-1.677001953125,1.23291015625,0.13916015625,5.687022900763359,-3.7480916030534353,-9.786259541984732,40.24764705882353
-1.500732421875,0.9052734375,0.133056640625,5.0458015267175576,-1.0763358778625953,-21.33587786259542,39.96529411764706
-1.8837890625,0.638427734375,0.128173828125,3.435114503816794,-3.0076335877862594,13.526717557251908,40.76529411764706
-1.6689453125,1.110595703125,0.13720703125,2.2595419847328246,-0.7862595419847328,-9.641221374045802,40.71823529411765
-1.785400390625,0.799072265625,0.12939453125,1.4427480916030535,-0.5038167938931297,13.709923664122137,40.76529411764706
-1.751220703125,1.127197265625,0.13037109375,2.6946564885496183,-2.1297709923664123,-18.106870229007633,40.012352941176474
-1.769287109375,0.793212890625,0.131103515625,1.2366412213740459,-2.6564885496183206,9.648854961832061,40.76529411764706
-1.802001953125,1.067138671875,0.131591796875,2.4198473282442747,-1.5267175572519085,-1.8473282442748091,40.71823529411765
-1.82080078125,0.8720703125,0.1279296875,2.2519083969465647,-3.5877862595419847,7.564885496183206,41.00058823529412
-1.78564453125,1.068603515625,0.127197265625,2.2442748091603053,-1.282442748091603,-3.732824427480916,40.671176470588236
-1.816162109375,0.798828125,0.135986328125,3.1374045801526718,-2.2519083969465647,7.549618320610687,40.671176470588236
-1.668212890625,1.083251953125,0.1337890625,3.549618320610687,-1.2595419847328244,-5.786259541984733,39.91823529411765
-1.7548828125,0.8447265625,0.138916015625,2.0381679389312977,-1.7404580152671756,2.3587786259541983,40.76529411764706
-1.6474609375,0.98291015625,0.1279296875,0.6946564885496184,-2.3893129770992365,-0.3816793893129771,41.00058823529412
-1.64111328125,1.02294921875,0.125244140625,3.801526717557252,-2.4885496183206106,-4.022900763358779,39.91823529411765
-1.63671875,0.864013671875,0.1318359375,0.37404580152671757,-2.16793893129771,21.061068702290076,40.671176470588236
-1.605712890625,1.166259765625,0.1318359375,5.351145038167939,-1.5954198473282444,-7.564885496183206,39.91823529411765
-1.531005859375,0.950439453125,0.134521484375,2.4656488549618323,-1.297709923664122,21.519083969465647,40.76529411764706
-1.47412109375,1.061767578125,0.135986328125,5.442748091603053,-3.0610687022900764,-17.793893129770993,39.96529411764706
-1.3369140625,0.83349609375,0.1318359375,1.9541984732824427,-0.4732824427480916,-15.595419847328245,40.85941176470588
-1.0771484375,1.0224609375,0.14013671875,0.20610687022900764,-2.366412213740458,-0.2366412213740458,40.906470588235294
-1.51708984375,0.7236328125,0.126708984375,3.7022900763358777,-1.900763358778626,-15.625954198473282,40.671176470588236
-1.0166015625,1.171875,0.1396484375,2.198473282442748,-0.2900763358778626,10.068702290076336,39.96529411764706
-0.993408203125,0.908935546875,0.133544921875,2.8091603053435112,-2.6793893129770994,-6.183206106870229,39.494705882352946
-1.2939453125,0.671630859375,0.12646484375,1.786259541984733,-1.618320610687023,23.458015267175572,40.906470588235294
-0.79443359375,1.222412109375,0.1279296875,3.0839694656488548,-0.816793893129771,-44.916030534351144,40.71823529411765
-0.71630859375,1.011474609375,0.139892578125,2.0,-3.0763358778625953,42.458015267175576,40.24764705882353
-0.52392578125,1.390869140625,0.14013671875,4.236641221374046,-3.618320610687023,-6.0,39.91823529411765
-0.572265625,0.62744140625,0.13525390625,3.5114503816793894,-3.0381679389312977,-19.740458015267176,40.76529411764706
-0.660400390625,0.797119140625,0.1376953125,3.6717557251908395,-0.9847328244274809,17.793893129770993,39.96529411764706
-0.379638671875,1.402099609375,0.125244140625,4.977099236641221,-3.145038167938931,31.259541984732824,39.21235294117647
-0.088623046875,1.040771484375,0.1376953125,3.7480916030534353,-1.251908396946565,-33.14503816793893,39.96529411764706
-0.46044921875,0.827880859375,0.13623046875,2.122137404580153,-3.3969465648854964,5.251908396946565,40.71823529411765
0.12158203125,0.95263671875,0.13818359375,5.129770992366412,-3.5343511450381677,3.763358778625954,40.012352941176474
-0.117431640625,1.12353515625,0.1259765625,4.015267175572519,-1.7328244274809161,13.702290076335878,39.91823529411765
0.27392578125,0.8974609375,0.134033203125,2.8625954198473282,-1.7557251908396947,-11.595419847328245,40.76529411764706
0.350341796875,1.284423828125,0.13671875,3.2748091603053435,-2.1755725190839694,-20.099236641221374,40.1064705882353
0.478515625,0.8046875,0.13720703125,3.0381679389312977,-0.7938931297709924,4.129770992366412,39.96529411764706
0.6337890625,1.0263671875,0.131591796875,2.2213740458015265,-2.7938931297709924,3.5572519083969465,40.671176470588236
0.39111328125,1.066650390625,0.13427734375,3.50381679389313,-0.8702290076335878,8.061068702290076,40.24764705882353
0.488037109375,1.0361328125,0.14013671875,0.9312977099236641,-3.099236641221374,17.33587786259542,40.671176470588236
1.119140625,1.257080078125,0.1337890625,4.824427480916031,-0.7786259541984732,-23.18320610687023,40.15352941176471
0.86376953125,0.87255859375,0.129150390625,5.33587786259542,-3.5267175572519083,-4.1603053435114505,40.012352941176474
0.97265625,1.002197265625,0.13623046875,3.2442748091603053,-1.083969465648855,4.061068702290076,40.85941176470588
1.251953125,1.27294921875,0.125,2.877862595419847,-2.549618320610687,3.4427480916030535,40.15352941176471
1.121337890625,0.909423828125,0.134033203125,5.068702290076335,-3.6259541984732824,-5.961832061068702,39.96529411764706
1.2939453125,0.89599609375,0.139404296875,3.480916030534351,-2.9770992366412212,9.442748091603054,40.1064705882353
1.39404296875,1.133056640625,0.129150390625,0.7175572519083969,-0.007633587786259542,12.13740458015267,40.76529411764706
1.25146484375,1.358154296875,0.125244140625,2.381679389312977,-0.7099236641221374,-19.3206106870229,39.96529411764706
1.499755859375,0.88427734375,0.13671875,2.83206106870229,-3.4580152671755724,-0.24427480916030533,40.24764705882353
1.51171875,0.938720703125,0.130126953125,1.9389312977099236,-2.7022900763358777,9.709923664122137,40.85941176470588
1.46142578125,1.196533203125,0.13916015625,4.801526717557252,-3.6259541984732824,13.664122137404581,40.71823529411765
1.767333984375,1.23681640625,0.134765625,4.114503816793893,-2.7786259541984735,-2.404580152671756,39.96529411764706
1.617919921875,1.01220703125,0.131103515625,0.6183206106870229,-2.969465648854962,-2.3053435114503817,40.71823529411765
1.576171875,0.951416015625,0.125732421875,3.8396946564885495,-2.145038167938931,9.633587786259541,41.00058823529412
1.722900390625,1.230712890625,0.1318359375,4.351145038167939,-3.7709923664122136,-0.5954198473282443,40.71823529411765
1.6962890625,0.984619140625,0.137939453125,2.114503816793893,-3.450381679389313,1.6641221374045803,40.671176470588236
1.64599609375,0.943115234375,0.12548828125,3.33587786259542,-3.687022900763359,3.6946564885496183,40.671176470588236
1.77734375,1.255859375,0.12939453125,2.0610687022900764,-0.5725190839694656,-7.541984732824427,41.00058823529412
1.724609375,0.96875,0.13525390625,3.687022900763359,-1.3435114503816794,2.145038167938931,39.91823529411765
1.64208984375,1.09912109375,0.13671875,2.236641221374046,-0.31297709923664124,2.0839694656488548,40.671176470588236
1.677490234375,1.120849609375,0.1552734375,3.0229007633587788,-1.9694656488549618,-2.3282442748091605,40.29470588235294
1.613525390625,1.03271484375,0.13330078125,3.5419847328244276,-2.5801526717557253,7.404580152671755,40.012352941176474
1.597412109375,1.1025390625,0.13037109375,3.0763358778625953,-1.083969465648855,-7.511450381679389,40.76529411764706
1.5166015625,0.943603515625,0.131591796875,2.1297709923664123,-2.7557251908396947,5.854961832061068,40.671176470588236
1.5224609375,1.156005859375,0.13916015625,2.16793893129771,-1.1450381679389312,-1.8244274809160306,40.71823529411765
1.430419921875,0.937255859375,0.127685546875,0.7404580152671756,-3.2519083969465647,-7.877862595419847,41.61235294117647
1.442138671875,1.131591796875,0.126220703125,2.053435114503817,-2.6412213740458017,-7.969465648854962,40.85941176470588
1.286865234375,0.839599609375,0.1279296875,-0.7709923664122137,-0.08396946564885496,11.755725190839694,40.85941176470588
1.322998046875,1.409423828125,0.130615234375,2.786259541984733,-3.0229007633587788,-8.0,40.85941176470588
1.14453125,0.931884765625,0.126220703125,2.1526717557251906,-0.6946564885496184,4.145038167938932,41.518235294117645
0.9853515625,0.904296875,0.126220703125,2.16793893129771,-2.801526717557252,17.0381679389313,40.71823529411765
1.01953125,1.47802734375,0.128173828125,4.1603053435114505,-3.854961832061069,-5.9541984732824424,40.671176470588236
0.982177734375,0.70166015625,0.128662109375,1.4427480916030535,-2.122137404580153,11.48091603053435,40.76529411764706
0.753662109375,1.41015625,0.140380859375,4.297709923664122,-3.5114503816793894,-5.908396946564886,40.71823529411765
0.8427734375,0.56298828125,0.13330078125,0.5114503816793893,-2.145038167938931,1.6717557251908397,40.85941176470588
0.60595703125,1.175537109375,0.130126953125,2.0076335877862594,-0.2900763358778626,-11.625954198473282,40.76529411764706
0.3427734375,0.754150390625,0.13623046875,2.7480916030534353,-3.549618320610687,19.366412213740457,41.61235294117647
0.641357421875,1.64013671875,0.136962890625,0.9389312977099237,-2.213740458015267,-21.732824427480917,40.71823529411765
0.110595703125,0.72802734375,0.12548828125,4.0,-1.3129770992366412,-3.5267175572519083,40.76529411764706
0.265380859375,1.07568359375,0.136962890625,5.366412213740458,-1.3587786259541985,25.68702290076336,40.671176470588236
0.137939453125,1.213623046875,0.138427734375,2.3740458015267176,-3.6946564885496183,-31.366412213740457,41.61235294117647
-0.087646484375,0.7294921875,0.130126953125,2.4580152671755724,-3.4732824427480917,9.427480916030534,40.906470588235294
-0.146240234375,1.200927734375,0.134033203125,5.870229007633588,-1.8473282442748091,-15.396946564885496,40.71823529411765
-0.08056640625,0.71875,0.125732421875,2.4656488549618323,-3.0610687022900764,9.374045801526718,41.47117647058823
-0.339111328125,0.962646484375,0.13037109375,2.480916030534351,-2.7709923664122136,13.587786259541986,40.76529411764706
-0.56103515625,1.271484375,0.130615234375,2.068702290076336,-3.045801526717557,-4.099236641221374,40.85941176470588
-0.7685546875,0.705322265625,0.128173828125,2.1908396946564888,-2.885496183206107,7.648854961832061,41.65941176470589
-0.640625,1.236083984375,0.13330078125,1.251908396946565,-0.6946564885496184,9.923664122137405,40.671176470588236
-0.892333984375,0.89794921875,0.12646484375,0.9847328244274809,-1.0381679389312977,-21.374045801526716,40.71823529411765
-0.783447265625,1.0302734375,0.131103515625,0.21374045801526717,-2.816793893129771,3.7251908396946565,41.518235294117645
-0.922119140625,0.926025390625,0.140869140625,5.213740458015267,-2.7557251908396947,-17.625954198473284,39.58882352941177
-1.010009765625,1.08447265625,0.129150390625,3.4885496183206106,-2.9160305343511452,3.648854961832061,40.671176470588236
-1.27294921875,0.901611328125,0.134521484375,0.32061068702290074,-2.1068702290076335,23.259541984732824,40.76529411764706
-1.263916015625,0.968017578125,0.132080078125,0.7404580152671756,-2.8702290076335877,13.374045801526718,40.76529411764706
-1.28759765625,1.0771484375,0.13232421875,0.5572519083969466,-3.3893129770992365,-5.961832061068702,40.71823529411765
-1.37353515625,0.896484375,0.13720703125,3.4885496183206106,-2.2061068702290076,7.2748091603053435,40.71823529411765
-1.372314453125,1.006591796875,0.1259765625,2.6793893129770994,-2.3282442748091605,-2.099236641221374,41.47117647058823
-1.607177734375,1.05029296875,0.1328125,2.7557251908396947,-2.3969465648854964,5.748091603053435,40.15352941176471
-1.66162109375,1.0244140625,0.131591796875,1.2213740458015268,-2.480916030534351,7.442748091603053,40.71823529411765
-1.466552734375,1.128662109375,0.14013671875,6.114503816793893,-3.9083969465648853,-17.755725190839694,40.671176470588236
-1.73388671875,0.65576171875,0.126953125,2.1908396946564888,-3.8396946564885495,11.435114503816793,41.47117647058823
-1.8046875,0.876953125,0.128173828125,3.969465648854962,-1.1603053435114503,-7.801526717557252,41.00058823529412
-1.717041015625,0.969482421875,0.136474609375,1.3053435114503817,-2.6030534351145036,1.7633587786259541,40.671176470588236
-1.7529296875,0.97119140625,0.1357421875,3.435114503816794,-3.2595419847328246,-10.213740458015268,40.71823529411765
-1.697265625,0.9208984375,0.12548828125,3.33587786259542,-2.0839694656488548,-2.114503816793893,39.96529411764706
-1.80224609375,0.940185546875,0.141845703125,1.9083969465648856,-0.7022900763358778,0.030534351145038167,39.54176470588236
-1.871337890625,0.906494140625,0.137451171875,2.931297709923664,-3.2595419847328246,1.7099236641221374,40.76529411764706
-1.714111328125,1.010009765625,0.132080078125,2.351145038167939,-3.572519083969466,3.687022900763359,40.85941176470588
-1.848876953125,0.960205078125,0.12646484375,2.099236641221374,-2.7709923664122136,5.656488549618321,40.76529411764706
-1.746337890625,0.896484375,0.134765625,0.5954198473282443,-2.145038167938931,5.770992366412214,40.906470588235294
-1.73046875,1.0849609375,0.1328125,3.49618320610687,-1.3511450381679388,-1.9465648854961832,40.012352941176474
-1.720458984375,0.867431640625,0.13720703125,3.2442748091603053,-1.1526717557251909,0.03816793893129771,40.012352941176474
-1.729736328125,0.98974609375,0.125732421875,3.0839694656488548,-2.6412213740458017,1.5267175572519085,40.76529411764706
-1.596435546875,0.965087890625,0.130859375,2.717557251908397,-3.5572519083969465,-4.221374045801527,40.85941176470588
-1.65234375,0.94189453125,0.129150390625,2.9618320610687023,-1.450381679389313,15.80916030534351,40.1064705882353
-1.63818359375,1.078857421875,0.1298828125,5.312977099236641,-3.8702290076335877,-7.916030534351145,40.012352941176474
-1.450439453125,0.87646484375,0.138427734375,3.732824427480916,-2.7786259541984735,-2.5801526717557253,40.85941176470588
-1.612548828125,0.846923828125,0.13720703125,1.9770992366412214,-2.9389312977099236,-9.908396946564885,40.71823529411765
-1.208984375,0.952880859375,0.13037109375,1.1374045801526718,-2.114503816793893,15.511450381679388,39.82411764705883
-1.33642578125,1.08349609375,0.127685546875,2.427480916030534,-2.564885496183206,11.251908396946565,40.85941176470588
-1.298095703125,0.994140625,0.137451171875,4.473282442748092,-1.83206106870229,-5.564885496183206,40.76529411764706
-0.968994140625,1.20556640625,0.138427734375,2.1374045801526718,-3.8702290076335877,11.458015267175572,40.671176470588236
-1.096923828125,0.8671875,0.126708984375,4.083969465648855,-3.267175572519084,-21.610687022900763,40.1064705882353
-1.004150390625,0.8955078125,0.126953125,2.687022900763359,-0.7099236641221374,12.183206106870228,39.91823529411765
-1.201904296875,0.974609375,0.131591796875,3.404580152671756,-1.3282442748091603,4.076335877862595,40.906470588235294
-0.625,1.043212890625,0.13427734375,2.969465648854962,-2.198473282442748,-37.76335877862596,40.24764705882353
-0.661865234375,0.966552734375,0.130126953125,3.0076335877862594,-3.198473282442748,9.648854961832061,40.012352941176474
-0.4033203125,0.99462890625,0.125,2.4198473282442747,-2.7938931297709924,-0.11450381679389313,40.76529411764706
-0.65478515625,0.68017578125,0.133544921875,2.0,-3.7557251908396947,-2.3587786259541983,40.76529411764706
-0.32470703125,1.3701171875,0.125732421875,4.587786259541985,-3.404580152671756,-3.9618320610687023,39.353529411764704
-0.4560546875,0.829345703125,0.13671875,3.480916030534351,-3.4885496183206106,27.213740458015266,40.71823529411765
-0.052734375,1.099365234375,0.126708984375,3.8702290076335877,-2.984732824427481,-0.183206106870229,39.91823529411765
0.001220703125,0.981689453125,0.130859375,3.4427480916030535,-2.4732824427480917,11.366412213740459,39.353529411764704
-0.046875,1.218505859375,0.136474609375,2.717557251908397,-2.7251908396946565,17.244274809160306,40.906470588235294
0.357177734375,0.88134765625,0.136474609375,4.030534351145038,-2.1603053435114505,-31.893129770992367,40.76529411764706
0.110595703125,0.981201171875,0.130615234375,1.1374045801526718,-0.7862595419847328,9.854961832061068,40.1064705882353
0.286376953125,0.965576171875,0.131103515625,2.2748091603053435,-3.8091603053435112,19.389312977099237,40.71823529411765
1.01220703125,1.6396484375,0.129150390625,6.152671755725191,-1.0381679389312977,-21.015267175572518,40.15352941176471
0.15185546875,0.427978515625,0.13134765625,2.885496183206107,-2.954198473282443,-2.435114503816794,40.71823529411765
0.929443359375,1.156494140625,0.129638671875,0.7251908396946565,-1.9770992366412214,3.8931297709923665,40.76529411764706
0.697509765625,1.0048828125,0.131591796875,5.2748091603053435,-3.83206106870229,-19.564885496183205,39.82411764705883
1.01806640625,1.150390625,0.1298828125,3.6030534351145036,-2.8625954198473282,17.374045801526716,40.012352941176474
1.046875,0.988037109375,0.12841796875,3.7938931297709924,-3.4580152671755724,3.877862595419847,40.15352941176471
1.033447265625,1.120849609375,0.127685546875,3.2900763358778624,-2.4732824427480917,-6.129770992366412,40.1064705882353
1.106201171875,1.109130859375,0.125,3.595419847328244,-2.5801526717557253,-6.480916030534351,40.012352941176474
1.312255859375,0.768798828125,0.1533203125,3.549618320610687,-1.1984732824427482,3.9770992366412212,39.54176470588236
1.41162109375,1.159912109375,0.133544921875,2.3435114503816794,-3.5419847328244276,-12.221374045801527,40.71823529411765
1.2783203125,1.20849609375,0.138427734375,3.49618320610687,-2.6030534351145036,19.389312977099237,39.96529411764706
1.680419921875,1.07861328125,0.1337890625,3.786259541984733,-3.2290076335877864,-13.961832061068701,39.91823529411765
1.379150390625,0.860595703125,0.128662109375,3.7480916030534353,-3.114503816793893,15.488549618320612,39.91823529411765
1.66259765625,1.126953125,0.13427734375,2.854961832061069,-1.6106870229007633,1.9923664122137406,40.671176470588236
1.595458984375,1.19677734375,0.1279296875,5.198473282442748,-0.8091603053435115,-7.786259541984733,39.96529411764706
1.6396484375,0.968505859375,0.134521484375,3.900763358778626,-1.450381679389313,9.770992366412214,39.91823529411765
1.650146484375,1.056640625,0.148681640625,2.5572519083969465,-3.3893129770992365,-0.007633587786259542,40.29470588235294
1.67333984375,1.1826171875,0.13525390625,3.2977099236641223,-1.1145038167938932,-5.854961832061068,40.71823529411765
1.75439453125,1.01708984375,0.126220703125,3.4732824427480917,-0.07633587786259542,3.9160305343511452,40.012352941176474
1.661376953125,1.00146484375,0.137939453125,2.9770992366412212,-3.5419847328244276,1.633587786259542,40.76529411764706
1.7373046875,1.19677734375,0.155517578125,2.4198473282442747,-2.404580152671756,-6.2748091603053435,40.29470588235294
1.698486328125,0.94287109375,0.130859375,2.2442748091603053,-2.931297709923664,9.687022900763358,40.671176470588236
1.6630859375,1.134033203125,0.128173828125,3.7709923664122136,-2.435114503816794,-0.15267175572519084,39.91823529411765
1.619384765625,0.92236328125,0.138671875,3.8625954198473282,-3.7938931297709924,-0.4351145038167939,40.76529411764706
1.62744140625,1.11474609375,0.13134765625,3.7251908396946565,-2.404580152671756,9.534351145038167,39.96529411764706
1.5546875,1.09130859375,0.130615234375,2.068702290076336,-3.1603053435114505,-8.045801526717558,40.76529411764706
1.66259765625,1.069580078125,0.12939453125,2.435114503816794,-2.1755725190839694,3.6717557251908395,40.671176470588236
1.486083984375,1.14013671875,0.13671875,3.0916030534351147,-2.3435114503816794,-10.145038167938932,40.76529411764706
1.369873046875,0.922119140625,0.13525390625,2.1374045801526718,-1.3587786259541985,1.9770992366412214,41.42411764705882
1.40625,1.06103515625,0.13623046875,2.9160305343511452,-0.549618320610687,15.648854961832061,40.76529411764706
1.290771484375,1.1904296875,0.13232421875,4.755725190839694,-2.5267175572519083,1.748091603053435,39.96529411764706
1.40673828125,1.062255859375,0.125732421875,0.916030534351145,-2.5114503816793894,1.6106870229007633,40.671176470588236
1.216064453125,1.150146484375,0.15283203125,2.122137404580153,-2.7938931297709924,-11.961832061068701,40.29470588235294
0.830810546875,0.792724609375,0.1357421875,0.9389312977099237,-2.2519083969465647,-6.038167938931298,41.65941176470589
1.12060546875,1.010009765625,0.126708984375,3.1603053435114505,-3.099236641221374,19.389312977099237,40.15352941176471
0.95849609375,1.212158203125,0.131103515625,3.282442748091603,-3.6030534351145036,-19.938931297709924,40.71823529411765
0.842041015625,1.030517578125,0.1318359375,1.3358778625954197,-0.030534351145038167,-13.511450381679388,40.906470588235294
0.78564453125,0.82666015625,0.12548828125,0.916030534351145,-2.687022900763359,25.17557251908397,40.71823529411765
0.4765625,1.08544921875,0.127685546875,3.3740458015267176,-3.435114503816794,1.8778625954198473,40.71823529411765
0.68017578125,1.285888671875,0.133056640625,5.687022900763359,-3.7099236641221376,1.7786259541984732,40.15352941176471
0.273681640625,0.832763671875,0.127197265625,3.763358778625954,-1.7786259541984732,-3.8931297709923665,40.76529411764706
0.420654296875,1.154296875,0.138427734375,3.1374045801526718,-2.4198473282442747,9.17557251908397,40.906470588235294
0.098388671875,0.961181640625,0.129150390625,3.7022900763358777,-2.381679389312977,-13.969465648854962,40.012352941176474
0.1181640625,1.00439453125,0.129150390625,0.7022900763358778,-0.1450381679389313,25.6793893129771,41.65941176470589
-0.10595703125,1.169921875,0.136962890625,4.358778625954199,-3.0839694656488548,-13.977099236641221,40.76529411764706
-0.077880859375,0.938232421875,0.135498046875,1.9618320610687023,-1.83206106870229,13.83969465648855,41.28294117647059
-0.103759765625,1.134521484375,0.129150390625,2.7786259541984735,-0.1297709923664122,-5.572519083969466,40.1064705882353
-0.61328125,1.03662109375,0.126708984375,0.6106870229007634,-2.114503816793893,7.32824427480916,42.36529411764706
-0.259033203125,1.18505859375,0.132568359375,5.0,-1.9465648854961832,-25.229007633587788,40.71823529411765
-0.789794921875,0.738037109375,0.127685546875,2.816793893129771,-3.7251908396946565,17.33587786259542,40.012352941176474
-0.578857421875,1.03271484375,0.130615234375,0.26717557251908397,-0.366412213740458,-21.267175572519083,41.61235294117647
-0.77294921875,1.016845703125,0.12939453125,3.2748091603053435,-3.7099236641221376,-0.3435114503816794,40.671176470588236
-1.0712890625,0.822265625,0.13232421875,3.8244274809160306,-2.3206106870229006,5.66412213740458,40.15352941176471
-0.70068359375,0.857177734375,0.1396484375,1.0229007633587786,-0.3435114503816794,3.9083969465648853,40.71823529411765
-1.2939453125,1.13818359375,0.13232421875,0.4122137404580153,-0.07633587786259542,13.763358778625955,40.85941176470588
-1.01611328125,1.195068359375,0.12548828125,1.5725190839694656,-2.16793893129771,-13.717557251908397,40.671176470588236
-1.45361328125,0.73583984375,0.13330078125,0.5725190839694656,-2.816793893129771,15.389312977099237,40.85941176470588
-1.091552734375,1.110595703125,0.13525390625,3.687022900763359,-3.2748091603053435,-19.580152671755727,40.671176470588236
-1.35498046875,0.602783203125,0.13916015625,4.5038167938931295,-3.312977099236641,29.18320610687023,40.48294117647059
-1.442626953125,1.36669921875,0.12646484375,1.6488549618320612,-2.2442748091603053,-6.061068702290076,40.71823529411765
-1.47900390625,1.03857421875,0.126953125,3.053435114503817,-2.1526717557251906,-1.9618320610687023,40.71823529411765
-1.59228515625,0.744140625,0.13623046875,2.8931297709923665,-3.7099236641221376,-12.01526717557252,40.671176470588236
-1.807373046875,0.628173828125,0.1357421875,7.145038167938932,-3.801526717557252,-1.9923664122137406,40.012352941176474
-1.50341796875,1.19091796875,0.13525390625,0.5954198473282443,-3.2977099236641223,23.213740458015266,41.61235294117647
-1.736083984375,1.127685546875,0.13525390625,2.0839694656488548,-2.33587786259542,-23.923664122137403,40.906470588235294
-1.816162109375,0.62353515625,0.13916015625,2.3282442748091605,-2.9923664122137406,5.519083969465649,40.85941176470588
-1.73193359375,1.163330078125,0.13232421875,5.793893129770993,-1.900763358778626,-11.641221374045802,40.012352941176474
-1.795166015625,0.794189453125,0.137451171875,0.8015267175572519,-0.40458015267175573,11.740458015267176,40.671176470588236
-1.744140625,1.11962890625,0.13671875,2.2290076335877864,-3.9083969465648853,-7.9541984732824424,40.71823529411765
-1.841552734375,0.88720703125,0.125,2.5114503816793894,-1.0229007633587786,5.969465648854962,40.76529411764706
-1.771240234375,0.98974609375,0.1357421875,2.2977099236641223,-1.5572519083969465,-1.8549618320610688,40.71823529411765
-1.802001953125,0.93505859375,0.1416015625,2.2748091603053435,-1.0381679389312977,8.15267175572519,40.29470588235294
-1.778564453125,0.9306640625,0.12646484375,0.8778625954198473,-2.4580152671755724,1.717557251908397,40.76529411764706
-1.787841796875,0.9716796875,0.130859375,2.6564885496183206,-2.0,-0.16030534351145037,40.906470588235294
-1.6572265625,0.94921875,0.13330078125,1.9312977099236641,-0.20610687022900764,-3.9083969465648853,40.1064705882353
-1.718017578125,0.933349609375,0.13134765625,3.4427480916030535,-3.519083969465649,5.343511450381679,39.91823529411765
-1.639404296875,1.00634765625,0.12890625,1.9923664122137406,-3.854961832061069,-0.08396946564885496,41.00058823529412
-1.586669921875,1.03125,0.13720703125,4.366412213740458,-3.6793893129770994,13.419847328244275,40.671176470588236
-1.6015625,1.0458984375,0.1396484375,4.564885496183206,-3.7099236641221376,-25.793893129770993,40.76529411764706
-1.69384765625,0.58935546875,0.13525390625,5.748091603053435,-1.6412213740458015,21.65648854961832,39.91823529411765
-1.32763671875,1.174072265625,0.140380859375,1.8396946564885497,-0.3969465648854962,0.12213740458015267,39.96529411764706
-1.437744140625,1.081787109375,0.128662109375,5.564885496183206,-3.8396946564885495,-18.0,39.96529411764706
-1.200439453125,0.8447265625,0.14013671875,3.236641221374046,-2.122137404580153,25.106870229007633,40.1064705882353
-1.33203125,1.0732421875,0.130615234375,1.9770992366412214,-3.1068702290076335,-23.564885496183205,41.00058823529412
-1.0859375,0.8828125,0.134033203125,1.1526717557251909,-2.3282442748091605,-2.0076335877862594,39.96529411764706
-1.099609375,0.7939453125,0.135009765625,2.5572519083969465,-3.3969465648854964,33.02290076335878,40.53
-1.12744140625,1.325927734375,0.125244140625,2.3435114503816794,-2.1297709923664123,-25.671755725190838,40.76529411764706
-0.63232421875,0.806396484375,0.126953125,0.3969465648854962,-1.1068702290076335,19.793893129770993,40.1064705882353
-0.91357421875,1.088623046875,0.1328125,3.450381679389313,-1.916030534351145,-17.442748091603054,39.96529411764706
-0.80126953125,0.66259765625,0.133544921875,0.09923664122137404,-2.3893129770992365,-0.26717557251908397,41.47117647058823
-0.576416015625,1.189208984375,0.13671875,4.267175572519084,-1.3969465648854962,7.916030534351145,40.012352941176474
-0.34423828125,1.257568359375,0.126708984375,2.519083969465649,-2.381679389312977,-9.900763358778626,40.1064705882353
-0.42041015625,0.574951171875,0.137939453125,-0.7099236641221374,-2.3587786259541983,3.618320610687023,40.85941176470588
-0.427734375,1.034912109375,0.138671875,2.381679389312977,-3.50381679389313,-19.786259541984734,40.906470588235294
0.213623046875,1.249755859375,0.133056640625,3.969465648854962,-3.717557251908397,17.30534351145038,40.24764705882353
-0.442626953125,1.0830078125,0.134765625,3.3206106870229006,-2.8473282442748094,13.213740458015268,40.76529411764706
0.076416015625,0.99072265625,0.1328125,0.7938931297709924,-2.145038167938931,-15.641221374045802,40.76529411764706
0.339599609375,0.911865234375,0.13134765625,1.3129770992366412,-2.572519083969466,15.267175572519085,39.96529411764706
0.007080078125,0.99609375,0.148193359375,5.3816793893129775,-3.549618320610687,9.641221374045802,39.54176470588236
0.6806640625,1.39501953125,0.13720703125,3.687022900763359,-1.0916030534351144,-15.603053435114504,40.012352941176474
0.491943359375,0.466064453125,0.125732421875,0.17557251908396945,-2.732824427480916,24.984732824427482,41.00058823529412
0.4716796875,1.587158203125,0.137451171875,5.587786259541985,-0.8854961832061069,-17.419847328244273,40.15352941176471
0.778564453125,0.771240234375,0.134765625,3.4580152671755724,-0.5419847328244275,-3.7938931297709924,40.012352941176474
0.95166015625,1.0341796875,0.12841796875,2.1603053435114505,-1.9465648854961832,-7.801526717557252,40.671176470588236
0.8037109375,1.10791015625,0.130859375,4.259541984732825,-1.8244274809160306,5.900763358778626,40.76529411764706
1.004638671875,1.100341796875,0.13525390625,3.8702290076335877,-2.16793893129771,-4.32824427480916,39.96529411764706
1.091552734375,0.894775390625,0.139404296875,3.763358778625954,-3.3435114503816794,-13.938931297709924,39.96529411764706
1.278564453125,1.11767578125,0.13720703125,1.702290076335878,-2.7938931297709924,9.541984732824428,40.15352941176471
1.18994140625,0.880615234375,0.136962890625,2.732824427480916,-0.3969465648854962,-1.6641221374045803,40.012352941176474
1.308837890625,1.1630859375,0.136962890625,0.8931297709923665,-2.0,9.587786259541986,40.76529411764706
1.539306640625,1.017578125,0.13671875,3.053435114503817,-2.2442748091603053,-0.1297709923664122,39.82411764705883
1.35693359375,1.210205078125,0.130126953125,3.6030534351145036,-2.6717557251908395,-0.4732824427480916,40.906470588235294
1.7109375,1.24267578125,0.127197265625,2.6030534351145036,-2.900763358778626,-6.015267175572519,40.012352941176474
1.45947265625,0.832275390625,0.13037109375,4.183206106870229,-3.8702290076335877,-2.0839694656488548,40.012352941176474
1.58447265625,1.045654296875,0.12841796875,1.015267175572519,-2.687022900763359,9.702290076335878,40.85941176470588
1.68115234375,1.16259765625,0.132080078125,4.297709923664122,-3.7709923664122136,-0.31297709923664124,40.76529411764706
1.674560546875,1.05712890625,0.126220703125,2.6030534351145036,-2.9236641221374047,1.5801526717557253,40.76529411764706
1.642822265625,1.0263671875,0.13623046875,2.4427480916030535,-2.6106870229007635,7.717557251908397,40.85941176470588
1.715087890625,1.12841796875,0.130859375,2.6259541984732824,-3.2595419847328246,-2.3053435114503817,40.85941176470588
1.70166015625,1.042724609375,0.134033203125,2.2290076335877864,-1.1068702290076335,-1.748091603053435,40.85941176470588
1.724365234375,0.979248046875,0.136474609375,2.122137404580153,-1.1603053435114503,-3.5114503816793894,40.85941176470588
1.6845703125,1.142822265625,0.12744140625,2.5572519083969465,-3.8702290076335877,-0.2366412213740458,40.85941176470588
1.665771484375,1.072265625,0.132568359375,3.4198473282442747,-2.1068702290076335,-0.03816793893129771,40.012352941176474
1.662353515625,1.054443359375,0.134765625,2.5343511450381677,-3.66412213740458,1.6717557251908397,40.85941176470588
1.58837890625,0.98193359375,0.13671875,2.7480916030534353,-2.3969465648854964,5.847328244274809,40.85941176470588
1.57666015625,1.205810546875,0.13671875,3.0229007633587788,-2.5267175572519083,-0.2900763358778626,40.671176470588236
1.635009765625,1.074951171875,0.126708984375,3.0916030534351147,-3.4122137404580153,-10.145038167938932,40.76529411764706
1.507080078125,1.00244140625,0.135498046875,3.198473282442748,-3.3893129770992365,-3.969465648854962,39.96529411764706
1.405029296875,0.9375,0.1259765625,2.0610687022900764,-3.8625954198473282,13.49618320610687,40.71823529411765
1.23046875,1.18798828125,0.126953125,3.519083969465649,-3.381679389312977,-10.244274809160306,40.85941176470588
1.5146484375,0.939697265625,0.13623046875,2.3893129770992365,-1.7786259541984732,-13.648854961832061,40.76529411764706
1.098876953125,0.888427734375,0.132568359375,0.9923664122137404,-2.236641221374046,15.297709923664122,41.61235294117647
1.10791015625,1.29052734375,0.131103515625,2.633587786259542,-2.2442748091603053,-2.1297709923664123,40.76529411764706
1.244140625,1.008056640625,0.128173828125,2.9236641221374047,-2.572519083969466,7.541984732824427,40.76529411764706
1.246337890625,1.584716796875,0.1318359375,4.488549618320611,-3.801526717557252,-10.038167938931299,40.24764705882353
0.698486328125,0.39794921875,0.134521484375,1.381679389312977,-0.5114503816793893,6.00763358778626,41.75352941176471
0.891845703125,1.303955078125,0.13134765625,4.00763358778626,-0.6335877862595419,7.847328244274809,41.00058823529412
0.761962890625,1.0341796875,0.128173828125,3.1755725190839694,-1.2290076335877862,-13.633587786259541,39.96529411764706
0.61279296875,0.852783203125,0.137451171875,0.9236641221374046,-2.312977099236641,-4.1679389312977095,40.671176470588236
0.4345703125,1.124267578125,0.1298828125,3.8931297709923665,-1.4274809160305344,6.0,40.71823529411765
0.5498046875,1.119384765625,0.125244140625,2.717557251908397,-3.648854961832061,1.7557251908396947,40.76529411764706
0.2529296875,0.83544921875,0.1376953125,3.3969465648854964,-2.564885496183206,5.8320610687022905,40.85941176470588
0.19775390625,1.318115234375,0.129150390625,0.04580152671755725,-2.404580152671756,9.763358778625955,41.47117647058823
0.205810546875,0.964599609375,0.1279296875,2.7938931297709924,-2.9083969465648853,-8.473282442748092,40.906470588235294
-0.3037109375,0.902587890625,0.12548828125,0.5114503816793893,-3.519083969465649,-15.900763358778626,41.47117647058823
-0.002685546875,1.293212890625,0.13037109375,5.3816793893129775,-3.7557251908396947,5.488549618320611,39.91823529411765
-0.4423828125,0.5185546875,0.13330078125,0.3816793893129771,-2.030534351145038,15.32824427480916,41.65941176470589
-0.013427734375,1.583740234375,0.128662109375,3.1908396946564888,-1.0381679389312977,-3.7022900763358777,41.518235294117645
-0.636474609375,0.480712890625,0.125,1.0305343511450382,-2.946564885496183,-19.770992366412212,40.012352941176474
-0.702392578125,1.154541015625,0.12890625,3.2519083969465647,-2.6259541984732824,26.900763358778626,40.57705882352941
-0.631591796875,1.248046875,0.136962890625,2.9618320610687023,-3.4732824427480917,3.618320610687023,41.65941176470589
-1.04736328125,0.753662109375,0.139404296875,3.7022900763358777,-3.267175572519084,-7.870229007633588,39.91823529411765
-0.60595703125,1.047119140625,0.128173828125,1.0229007633587786,-2.9160305343511452,-45.17557251908397,40.76529411764706
-1.1845703125,0.650390625,0.134765625,3.3587786259541983,-3.8473282442748094,56.37404580152672,41.518235294117645
-0.87353515625,1.398193359375,0.13525390625,2.1526717557251906,-2.5572519083969465,-27.763358778625953,40.76529411764706
-1.3720703125,0.7861328125,0.131103515625,2.7480916030534353,-3.732824427480916,19.16030534351145,39.96529411764706
-0.994140625,1.2216796875,0.138916015625,0.22137404580152673,-2.1526717557251906,7.511450381679389,41.47117647058823
-1.441162109375,0.66796875,0.12890625,1.015267175572519,-2.9083969465648853,19.282442748091604,41.65941176470589
-1.28515625,1.2197265625,0.131103515625,2.099236641221374,-3.4427480916030535,-39.16030534351145,41.00058823529412
-1.392333984375,0.78564453125,0.12890625,2.5114503816793894,-3.2595419847328246,11.564885496183207,40.71823529411765
-1.526611328125,1.008544921875,0.12548828125,5.106870229007634,-3.33587786259542,-4.190839694656488,40.85941176470588
-1.68603515625,0.938720703125,0.12939453125,3.984732824427481,-1.83206106870229,6.221374045801527,40.76529411764706
-1.606689453125,1.0068359375,0.13623046875,0.8854961832061069,-1.5877862595419847,0.061068702290076333,41.518235294117645
-1.701904296875,1.030517578125,0.129150390625,2.282442748091603,-2.717557251908397,9.305343511450381,40.71823529411765
-1.63671875,0.91015625,0.139404296875,1.9236641221374047,-2.4427480916030535,-12.274809160305344,40.76529411764706
-1.824951171875,0.787841796875,0.127197265625,0.9694656488549618,-0.6641221374045801,1.9923664122137406,40.76529411764706
-1.75341796875,1.07666015625,0.134033203125,3.4732824427480917,-2.7480916030534353,-8.068702290076336,40.012352941176474
-1.6826171875,0.979248046875,0.1328125,0.007633587786259542,-2.2442748091603053,7.595419847328245,40.85941176470588
-1.89013671875,0.9404296875,0.135498046875,3.564885496183206,-2.9160305343511452,-2.0916030534351147,40.012352941176474
-1.7705078125,0.893798828125,0.139892578125,0.7480916030534351,-2.1374045801526718,5.809160305343512,40.76529411764706
-1.792236328125,1.009521484375,0.137939453125,2.4122137404580153,-2.877862595419847,3.8244274809160306,41.00058823529412
-1.787841796875,0.89697265625,0.135986328125,2.450381679389313,-3.053435114503817,7.564885496183206,40.85941176470588
-1.78076171875,0.968505859375,0.134765625,2.50381679389313,-3.2595419847328246,1.6717557251908397,41.00058823529412
-1.78955078125,0.886474609375,0.14013671875,2.763358778625954,-3.885496183206107,5.450381679389313,40.85941176470588
-1.705810546875,0.99609375,0.138671875,3.618320610687023,-1.8015267175572518,-3.8091603053435112,39.96529411764706
-1.678955078125,1.0830078125,0.134033203125,4.519083969465649,-1.6641221374045803,1.9541984732824427,39.91823529411765
-1.713623046875,0.91357421875,0.12939453125,2.3969465648854964,-2.3435114503816794,15.358778625954198,40.71823529411765
-1.5185546875,1.230712890625,0.125,5.022900763358779,-2.8244274809160306,-17.763358778625953,39.96529411764706
-1.672119140625,0.589599609375,0.125244140625,3.5114503816793894,-2.1526717557251906,15.297709923664122,40.53
-1.458984375,1.197021484375,0.125244140625,4.809160305343512,-1.1450381679389312,-9.725190839694656,40.906470588235294
-1.452880859375,0.910888671875,0.1279296875,3.763358778625954,-2.572519083969466,-0.12213740458015267,40.15352941176471
-1.31005859375,1.00341796875,0.135986328125,1.3893129770992367,-2.1526717557251906,-4.465648854961832,39.21235294117647
-1.38525390625,0.759521484375,0.12548828125,3.5267175572519083,-2.0916030534351147,-13.938931297709924,40.1064705882353
-1.13037109375,0.885009765625,0.138671875,2.0,-2.8091603053435112,7.755725190839694,40.76529411764706
-1.52783203125,0.886962890625,0.13720703125,2.3282442748091605,-1.3435114503816794,2.114503816793893,40.76529411764706
-0.81884765625,1.245849609375,0.12939453125,3.595419847328244,-0.9389312977099237,0.04580152671755725,40.012352941176474
-1.2705078125,1.220458984375,0.126220703125,4.290076335877862,-1.8931297709923665,-23.435114503816795,40.012352941176474
-0.533935546875,0.6953125,0.137939453125,4.091603053435114,-3.83206106870229,35.091603053435115,40.671176470588236
-1.076171875,1.11572265625,0.1298828125,2.900763358778626,-2.519083969465649,-0.007633587786259542,39.96529411764706
-0.486572265625,0.865966796875,0.131103515625,1.6793893129770991,-2.427480916030534,5.33587786259542,40.1064705882353
-0.65771484375,0.99755859375,0.1396484375,5.549618320610687,-2.7786259541984735,-19.732824427480917,39.96529411764706
-0.629150390625,0.718017578125,0.136962890625,2.1297709923664123,-1.083969465648855,33.274809160305345,40.24764705882353
-0.278564453125,1.417724609375,0.13916015625,2.9618320610687023,-2.0076335877862594,-9.877862595419847,40.012352941176474
-0.274169921875,1.08837890625,0.12646484375,5.282442748091603,-3.0381679389312977,-12.145038167938932,39.96529411764706
-0.32568359375,1.008544921875,0.13818359375,1.9541984732824427,-0.16030534351145037,-7.786259541984733,41.00058823529412
0.1015625,0.88330078125,0.12939453125,3.6717557251908395,-2.053435114503817,15.610687022900763,39.400588235294116
-0.092529296875,0.953857421875,0.14013671875,0.8396946564885496,-0.2900763358778626,-3.9083969465648853,41.42411764705882
0.285888671875,1.2861328125,0.12939453125,2.3969465648854964,-2.404580152671756,-12.106870229007633,40.012352941176474
0.275634765625,0.7470703125,0.136474609375,5.33587786259542,-1.6946564885496183,6.061068702290076,39.400588235294116
0.304931640625,0.920654296875,0.14013671875,-1.6717557251908397,-3.49618320610687,13.34351145038168,41.42411764705882
0.589599609375,1.280517578125,0.132568359375,4.33587786259542,-2.3587786259541983,-2.2213740458015265,39.91823529411765
0.69384765625,1.241943359375,0.139404296875,5.442748091603053,-3.282442748091603,13.450381679389313,40.1064705882353
0.390625,0.736572265625,0.1357421875,3.236641221374046,-3.6793893129770994,1.9465648854961832,40.906470588235294
1.174560546875,1.04541015625,0.137939453125,2.8244274809160306,-0.7251908396946565,-5.396946564885496,41.00058823529412
0.6982421875,1.22265625,0.1259765625,5.587786259541985,-3.068702290076336,-0.06870229007633588,39.96529411764706
0.994873046875,1.04541015625,0.139404296875,4.534351145038168,-3.16793893129771,-13.793893129770993,40.012352941176474
1.16357421875,0.89599609375,0.135986328125,2.7786259541984735,-1.5038167938931297,-13.48091603053435,40.85941176470588
1.26220703125,0.98486328125,0.137451171875,1.0916030534351144,-0.32061068702290074,3.954198473282443,40.76529411764706
1.176513671875,1.167724609375,0.12548828125,3.5267175572519083,-2.4580152671755724,5.656488549618321,39.21235294117647
1.266357421875,0.890869140625,0.133056640625,2.50381679389313,-1.8396946564885497,-5.801526717557252,40.76529411764706
1.522216796875,1.147216796875,0.146484375,1.5267175572519085,-3.2595419847328246,-6.229007633587786,39.58882352941177
1.428466796875,1.06201171875,0.12890625,2.282442748091603,-1.282442748091603,9.80916030534351,40.85941176470588
1.4951171875,1.083984375,0.12646484375,3.2977099236641223,-2.1068702290076335,-11.763358778625955,40.85941176470588
1.6005859375,1.0869140625,0.126220703125,3.648854961832061,-2.114503816793893,9.717557251908397,39.96529411764706
1.6279296875,1.11669921875,0.137939453125,0.1984732824427481,-2.595419847328244,5.847328244274809,40.71823529411765
1.689697265625,1.1884765625,0.12548828125,5.442748091603053,-3.4580152671755724,13.580152671755725,40.012352941176474
1.60693359375,0.94580078125,0.12548828125,4.8396946564885495,-2.954198473282443,-8.083969465648854,40.76529411764706
1.71142578125,0.98876953125,0.1396484375,2.9770992366412212,-3.3282442748091605,15.358778625954198,40.76529411764706
1.688232421875,1.165771484375,0.125,3.8625954198473282,-0.8702290076335878,-3.4580152671755724,40.1064705882353
1.71337890625,1.06689453125,0.12939453125,3.8244274809160306,-2.6793893129770994,-7.885496183206107,40.012352941176474
1.732666015625,1.01220703125,0.13525390625,2.480916030534351,-3.564885496183206,-0.09923664122137404,40.76529411764706
1.701416015625,1.072509765625,0.138427734375,2.5267175572519083,-3.045801526717557,-2.053435114503817,40.85941176470588
1.662841796875,1.148681640625,0.136474609375,2.4198473282442747,-1.1984732824427482,-3.8702290076335877,40.85941176470588
1.64013671875,1.0458984375,0.139404296875,2.5801526717557253,-2.3893129770992365,3.854961832061069,40.71823529411765
1.60498046875,1.077880859375,0.129150390625,4.343511450381679,-3.2977099236641223,-0.29770992366412213,40.53
1.531494140625,0.98046875,0.12890625,0.732824427480916,-0.12213740458015267,4.015267175572519,41.47117647058823
1.5419921875,1.114013671875,0.130859375,2.648854961832061,-1.5954198473282444,-9.770992366412214,41.00058823529412
1.510009765625,0.96240234375,0.130615234375,3.5877862595419847,-3.8244274809160306,7.6106870229007635,40.012352941176474
1.445068359375,1.1318359375,0.134033203125,1.3435114503816794,-2.404580152671756,-10.091603053435115,40.76529411764706
1.4638671875,1.063720703125,0.125732421875,2.9618320610687023,-3.564885496183206,11.511450381679388,39.96529411764706
1.244873046875,1.0146484375,0.134033203125,3.015267175572519,-3.549618320610687,11.374045801526718,40.71823529411765
1.2333984375,1.27685546875,0.13818359375,3.6793893129770994,-2.4580152671755724,-39.465648854961835,40.71823529411765
1.103515625,0.693115234375,0.126708984375,3.030534351145038,-3.213740458015267,17.366412213740457,40.71823529411765
1.111083984375,1.324951171875,0.131103515625,3.2442748091603053,-3.7709923664122136,1.8473282442748091,40.71823529411765
